Folder: supportingdata/2025/starling_2025/figures/experimental_comparison/saxs_scattering/experiment/a1_lcd_wt_martin_2020

Note: 2025/starling_2025/figures/experimental_comparison/saxs_scattering/experiment/readme.md
# About

This directory contains scattering data and their reanalysis using the (wonderful) MFF of [Riback et al.](https://sosnick.uchicago.edu/SAXSonIDPs/).

This means for every SAXS piece of SAXS data here, we:

1. Verified it was of high quality
2. Re-evaluated it in a CONSISTENT (and in our experience, very robust) way


We feel this sets the highest bar for consistent, high-quality experimental data to compare against. We also hope this is generally useful for the community in the future.

### Files

* `sequences.fasta` - the sequences for all the proteins in this directory (53 proteins)
* `mff_analysis_all.csv` - a CSV file we 53 entries with three columns (name, $R_g$ value, $R_g$ error), as calculated for each scattering data directly using the [Molecular Form Factor](https://sosnick.uchicago.edu/SAXSonIDPs/). The Rg/error values here are summaries; for EACH entry, the full MFF output is in the `mff_out.csv` file in each directory.


### Subdirectories
* Each subdirectory (e.g., `alpha_syn`) contains a set of files:
	* `<filename>.dat` (or something like this), which is the original scattering data. If no `_clean.dat` file (described below) is present, this is the file that will be used for the scattering data.
	* `SASD<ID>.dat` - [optional] - some of the files have the original [SASBDB](https://www.sasbdb.org/) scattering data,
	* `<sequence-name>_clean.dat` - the final, cleaned scattering data in a self-consistent format, which, _if available_ will be the scattering data to use. 
	* `mff_out.csv` - full output from the MFF analysis of the cleaned scattering data.

File: mff_out.csv
#File Plotted Below: a1_lcd_wt_martin_2020.dat,,,,,,,,,,
,,,,,,,,,,
    #Fit from 0.01-0.15 with polymer MFF,,,,,,,,,,
#Initial search parameter for I0 = 38.7374,,,,,,,,,,
#Initial search parameter for Rg = 30,,,,,,,,,,
#Initial search parameter for nu = 0.499881,,,,,,,,,,
#BestFit for I0 = 41.73904 +- 0.17376,,,,,,,,,,
#BestFit for I(0)/I0 = 1.00000 +- 0.00416,,,,,,,,,,
#BestFit for Rg = 27.19039 +- 0.15387,,,,,,,,,,
#BestFit for nu = 0.44710 +- 0.00593,,,,,,,,,,
#BestFit reduced chisquared = 0.12226,,,,,,,,,,
#-------------,,,,,,,,,,
#-------------,,,,,,,,,,
,,,,,,,,,,
    #q,I(q),Error,fit,I(q)/I0,Error/I0,fit/I0,qRg,((qRg)^2)I(q)/I0,((qRg)^2)*Error/I0,((qRg)^2)*fit/I0
0.00535,9.0966,60.653,41.47312,0.21794,1.45315,0.99363,0.14553,0.00462,0.03077,0.02104
0.00864,38.808,14.663,40.974,0.92978,0.3513,0.98167,0.23496,0.05133,0.01939,0.05419
0.01193,34.937,7.3698,40.24998,0.83703,0.17657,0.96432,0.32438,0.08808,0.01858,0.10147
0.01522,37.609,4.8419,39.32652,0.90105,0.116,0.9422,0.41381,0.1543,0.01986,0.16134
0.01851,38.413,3.504,38.2292,0.92031,0.08395,0.91591,0.50324,0.23307,0.02126,0.23195
0.0218,37.07,2.8446,36.98357,0.88814,0.06815,0.88607,0.59267,0.31196,0.02394,0.31124
0.02509,36.182,2.4464,35.6152,0.86686,0.05861,0.85328,0.6821,0.40331,0.02727,0.397
0.02838,32.985,2.5852,34.14963,0.79027,0.06194,0.81817,0.77153,0.47041,0.03687,0.48702
0.03166,30.598,2.4309,32.61242,0.73308,0.05824,0.78134,0.86096,0.54339,0.04317,0.57917
0.03495,29.415,2.3041,31.02912,0.70474,0.0552,0.74341,0.95039,0.63654,0.04986,0.67147
0.03824,28.75,2.3214,29.42511,0.6888,0.05562,0.70498,1.03981,0.74474,0.06013,0.76223
0.04153,27.451,2.2886,27.82068,0.65768,0.05483,0.66654,1.12924,0.83867,0.06992,0.84996
0.04482,26.589,2.2909,26.23,0.63703,0.05489,0.62843,1.21867,0.94609,0.08152,0.93332
0.04811,25.729,2.2272,24.66688,0.61643,0.05336,0.59098,1.3081,1.05478,0.09131,1.01124
0.0514,24.178,2.1723,23.14516,0.57927,0.05204,0.55452,1.39753,1.13136,0.10165,1.08303
0.05469,21.916,2.1479,21.67866,0.52507,0.05146,0.51939,1.48696,1.16096,0.11378,1.14839
0.05798,20.275,2.0785,20.27981,0.48576,0.0498,0.48587,1.57639,1.20711,0.12375,1.20739
0.06127,19.119,2.071,18.95206,0.45806,0.04962,0.45406,1.66582,1.2711,0.13769,1.26
0.06456,19.301,2.0134,17.69494,0.46242,0.04824,0.42394,1.75528,1.42471,0.14862,1.30616
0.06784,16.712,1.9938,16.5091,0.40039,0.04777,0.39553,1.8447,1.36251,0.16255,1.34597
0.07113,15.468,1.9533,15.39404,0.37059,0.0468,0.36882,1.93413,1.38632,0.17507,1.37969
0.07442,12.836,1.9211,14.34962,0.30753,0.04603,0.34379,2.02356,1.25928,0.18847,1.40777
0.07771,12.858,1.8982,13.37468,0.30806,0.04548,0.32044,2.11299,1.37539,0.20305,1.43066
0.081,11.36,1.8692,12.466,0.27217,0.04478,0.29867,2.20242,1.32019,0.21723,1.44872
0.08429,11.321,1.8405,11.62013,0.27123,0.0441,0.2784,2.29185,1.42467,0.23161,1.46232
0.08758,11.159,1.8049,10.83365,0.26735,0.04324,0.25956,2.38128,1.51602,0.24521,1.47181
0.09087,10.859,2.0027,10.1031,0.26016,0.04798,0.24205,2.47071,1.58815,0.2929,1.47759
0.09416,9.9558,2.0272,9.42505,0.23852,0.04857,0.22581,2.56014,1.56337,0.31833,1.48002
0.09745,8.4302,1.8221,8.79626,0.20197,0.04365,0.21074,2.64957,1.4179,0.30646,1.47947
0.10073,8.6541,1.7706,8.21426,0.20734,0.04242,0.1968,2.73889,1.55535,0.31822,1.4763
0.10402,6.8689,1.7433,7.67435,0.16457,0.04177,0.18387,2.82834,1.31646,0.33411,1.47083
0.10731,7.8842,1.731,7.1743,0.18889,0.04147,0.17188,2.9178,1.60815,0.35307,1.46335
0.1106,7.3949,1.6879,6.71098,0.17717,0.04044,0.16078,3.00726,1.60225,0.36572,1.45407
0.11389,5.4586,1.6759,6.28145,0.13078,0.04015,0.15049,3.09671,1.25412,0.38504,1.44318
0.11718,5.7265,1.6509,5.88342,0.1372,0.03955,0.14096,3.18617,1.39279,0.40153,1.43095
0.12047,5.1802,1.6314,5.51474,0.12411,0.03909,0.13212,3.27563,1.33166,0.41938,1.41766
0.12376,5.0458,1.761,5.17324,0.12089,0.04219,0.12394,3.36508,1.36892,0.47776,1.4035
0.12705,5.4672,1.6321,4.85679,0.13099,0.0391,0.11636,3.45454,1.56316,0.46664,1.38863
0.13034,4.2517,1.5965,4.56323,0.10186,0.03825,0.10933,3.544,1.2794,0.48041,1.37315
0.13362,4.9453,1.578,4.29159,0.11848,0.03781,0.10282,3.63318,1.56395,0.49904,1.35722
0.13691,3.8767,1.5612,4.03879,0.09288,0.0374,0.09676,3.72264,1.28713,0.51834,1.34094
0.1402,3.31,1.5346,3.80431,0.0793,0.03677,0.09115,3.81209,1.15242,0.53429,1.32453
0.14349,3.443,1.5354,3.58675,0.08249,0.03679,0.08593,3.90155,1.25565,0.55995,1.30808
0.14678,3.4944,1.5012,3.38473,0.08372,0.03597,0.08109,3.99101,1.33351,0.57288,1.29165
0.15007,3.2923,1.5006,3.19691,0.07888,0.03595,0.07659,4.08046,1.31333,0.59861,1.27528
0.15336,3.3191,1.5591,3.02227,0.07952,0.03735,0.07241,4.16992,1.38272,0.64951,1.25906
0.15665,2.1843,1.6664,2.85992,0.05233,0.03992,0.06852,4.25937,0.94943,0.72432,1.24309
0.15994,2.2763,1.5061,2.70895,0.05454,0.03608,0.0649,4.34883,1.03141,0.68243,1.22745
0.16323,2.1137,1.4851,2.56848,0.05064,0.03558,0.06154,4.43829,0.99754,0.70088,1.21217
0.16651,2.3956,1.4592,2.43799,0.05739,0.03496,0.05841,4.52747,1.17648,0.71661,1.19729
0.1698,2.9424,1.4402,2.31589,0.0705,0.0345,0.05548,4.61693,1.50268,0.73551,1.18272
0.17309,2.6489,1.4357,2.202,0.06346,0.0344,0.05276,4.70638,1.40572,0.7619,1.16856
0.17638,2.6164,1.4092,2.09574,0.06268,0.03376,0.05021,4.79584,1.44175,0.77653,1.15485
0.17967,1.6494,1.4031,1.99655,0.03952,0.03362,0.04783,4.8853,0.94312,0.80228,1.14161
0.18296,1.5469,1.3871,1.90382,0.03706,0.03323,0.04561,4.97475,0.9172,0.82245,1.12883
0.18625,1.6884,1.3817,1.81701,0.04045,0.0331,0.04353,5.06421,1.03742,0.84897,1.11645
0.18954,2.4883,1.3693,1.73567,0.05962,0.03281,0.04158,5.15367,1.58341,0.87134,1.10448
0.19283,2.8186,1.3495,1.65944,0.06753,0.03233,0.03976,5.24312,1.8564,0.88881,1.09294
0.19612,1.1936,1.3338,1.58793,0.0286,0.03196,0.03804,5.33258,0.81319,0.9087,1.08184
0.1994,0.80448,1.3259,1.52099,0.01927,0.03177,0.03644,5.42176,0.56657,0.93379,1.07119
0.20269,1.7933,1.3268,1.45784,0.04296,0.03179,0.03493,5.51122,1.30499,0.96551,1.06087
0.20598,1.2206,1.3065,1.39834,0.02924,0.0313,0.0335,5.60068,0.9173,0.98186,1.05088
0.20927,1.6116,1.3045,1.34228,0.03861,0.03125,0.03216,5.69013,1.25014,1.01192,1.04122
0.21256,0.92903,1.281,1.2894,0.02226,0.03069,0.03089,5.77959,0.7435,1.02518,1.03191
0.21585,1.6586,1.2967,1.2395,0.03974,0.03107,0.0297,5.86905,1.36878,1.07012,1.02292
0.21914,1.0797,1.396,1.19235,0.02587,0.03345,0.02857,5.9585,0.91841,1.18745,1.01423
0.22243,1.6265,1.314,1.14772,0.03897,0.03148,0.0275,6.04796,1.42537,1.15152,1.0058
0.22572,1.3985,1.2881,1.10543,0.03351,0.03086,0.02648,6.13741,1.26209,1.16246,0.99761
0.229,1.9873,1.2735,1.06547,0.04761,0.03051,0.02553,6.2266,1.84596,1.18293,0.98969
0.23229,1.2671,1.2665,1.02746,0.03036,0.03034,0.02462,6.31606,1.21104,1.21047,0.98201
0.23558,1.0665,1.248,0.99139,0.02555,0.0299,0.02375,6.40551,1.0484,1.22682,0.97457
0.23887,0.36452,1.2433,0.95713,0.00873,0.02979,0.02293,6.49497,0.36841,1.25657,0.96735
0.24216,0.76883,1.2211,0.92455,0.01842,0.02926,0.02215,6.58442,0.79859,1.26837,0.96033
0.24545,1.1913,1.2312,0.89355,0.02854,0.0295,0.02141,6.67388,1.27126,1.31384,0.95352
0.24874,0.43027,1.2095,0.86403,0.01031,0.02898,0.0207,6.76334,0.47154,1.32552,0.94691
0.25203,0.67965,1.1994,0.83593,0.01628,0.02874,0.02003,6.85279,0.76468,1.34945,0.94051
0.25532,1.3283,1.1976,0.80914,0.03182,0.02869,0.01939,6.94225,1.53375,1.38283,0.93429
0.25861,0.47961,1.1849,0.78357,0.01149,0.02839,0.01877,7.03171,0.56816,1.40366,0.92824
0.2619,0.4292,1.1808,0.75916,0.01028,0.02829,0.01819,7.12116,0.52146,1.43462,0.92234
0.26519,1.3093,1.1685,0.73584,0.03137,0.028,0.01763,7.21062,1.63095,1.45556,0.91662
0.26847,0.7593,1.1689,0.71363,0.01819,0.028,0.0171,7.2998,0.96938,1.4923,0.91107
0.27176,1.4528,1.233,0.69233,0.03481,0.02954,0.01659,7.38926,1.90049,1.61296,0.90568
0.27505,1.091,1.2695,0.67196,0.02614,0.03042,0.0161,7.47872,1.46196,1.70116,0.90045
0.27834,0.91594,1.2719,0.65247,0.02194,0.03047,0.01563,7.56817,1.25692,1.74539,0.89536
0.28163,0.2295,1.4145,0.6338,0.0055,0.03389,0.01518,7.65763,0.32243,1.98723,0.89043
0.28492,1.1478,1.4739,0.61593,0.0275,0.03531,0.01476,7.74709,1.65044,2.11935,0.88566
0.28821,0.38611,1.5203,0.59881,0.00925,0.03642,0.01435,7.83654,0.56809,2.23684,0.88104
0.2915,0.09157,1.5866,0.5824,0.00219,0.03801,0.01395,7.926,0.13782,2.38799,0.87657
0.29479,1.2156,1.6115,0.56666,0.02912,0.03861,0.01358,8.01545,1.87113,2.48053,0.87224
0.29807,0.16762,1.6963,0.55161,0.00402,0.04064,0.01322,8.10464,0.26379,2.66949,0.86807
0.30136,0.78723,1.7124,0.53712,0.01886,0.04103,0.01287,8.1941,1.26637,2.75464,0.86403
0.30465,0.6891,1.7846,0.52321,0.01651,0.04276,0.01254,8.28355,1.13285,2.93381,0.86013
0.30794,0.61058,1.8155,0.50985,0.01463,0.0435,0.01222,8.37301,1.02556,3.04942,0.85637
0.31123,0.30963,1.85,0.49702,0.00742,0.04432,0.01191,8.46246,0.53124,3.17412,0.85275
0.31452,0.93107,1.908,0.48468,0.02231,0.04571,0.01161,8.55192,1.63143,3.34321,0.84925
0.31781,-0.49591,1.9337,0.47281,-0.01188,0.04633,0.01133,8.64138,-0.88721,3.45949,0.84589
0.3211,0.55668,2.0257,0.4614,0.01334,0.04853,0.01105,8.73083,1.01666,3.69951,0.84264
0.32439,0.22623,2.0343,0.45041,0.00542,0.04874,0.01079,8.82029,0.42167,3.79174,0.83953
0.32768,1.2962,2.1815,0.43984,0.03105,0.05227,0.01054,8.90975,2.46525,4.149,0.83653
0.33097,-0.58178,2.1777,0.42965,-0.01394,0.05217,0.01029,8.9992,-1.12882,4.22536,0.83364
0.33425,0.46194,2.3302,0.41986,0.01107,0.05583,0.01006,9.08839,0.91415,4.61131,0.83087
0.33754,0.25757,2.3741,0.41039,0.00617,0.05688,0.00983,9.17784,0.5198,4.79113,0.8282
0.34083,1.5365,2.4435,0.40126,0.03681,0.05854,0.00961,9.2673,3.16152,5.02778,0.82563
0.34412,-0.01585,2.5687,0.39244,-0.00038,0.06154,0.0094,9.35676,-0.03324,5.38792,0.82315
0.34741,0.77417,2.5636,0.38393,0.01855,0.06142,0.0092,9.44621,1.65504,5.48054,0.82077
0.3507,1.1372,2.7224,0.3757,0.02725,0.06522,0.009,9.53567,2.4774,5.93078,0.81848
0.35399,0.89716,2.7527,0.36776,0.02149,0.06595,0.00881,9.62513,1.99132,6.10983,0.81626
0.35728,2.1209,3.081,0.36007,0.05081,0.07382,0.00863,9.71458,4.79541,6.96622,0.81413
0.36057,1.9058,3.1171,0.35264,0.04566,0.07468,0.00845,9.80404,4.38879,7.17824,0.81208
0.36385,-1.3146,3.5351,0.34548,-0.0315,0.0847,0.00828,9.89322,-3.08267,8.28962,0.81013
0.36714,-0.70884,3.6947,0.33853,-0.01698,0.08852,0.00811,9.98268,-1.69239,8.82127,0.80825
0.37043,1.6689,3.9587,0.3318,0.03998,0.09484,0.00795,10.07214,4.05631,9.62173,0.80645
0.37372,0.73857,4.6121,0.32529,0.01769,0.1105,0.00779,10.16159,1.82714,11.40984,0.80474
0.37701,1.8484,4.7374,0.31899,0.04428,0.1135,0.00764,10.25105,4.65361,11.92708,0.8031
0.3803,1.6232,6.4615,0.31288,0.03889,0.15481,0.0075,10.3405,4.15827,16.55291,0.80154
0.38359,5.6767,7.6038,0.30697,0.136,0.18217,0.00735,10.42996,14.79513,19.81771,0.80004
0.38658,4.5097,12.266,0.30174,0.10805,0.29387,0.00723,10.51126,11.93754,32.46908,0.79874