Folder: supportingdata/2025/starling_2025/figures/experimental_comparison/saxs_scattering/experiment/a1_lcd

Note: 2025/starling_2025/figures/experimental_comparison/saxs_scattering/experiment/readme.md
# About

This directory contains scattering data and their reanalysis using the (wonderful) MFF of [Riback et al.](https://sosnick.uchicago.edu/SAXSonIDPs/).

This means for every SAXS piece of SAXS data here, we:

1. Verified it was of high quality
2. Re-evaluated it in a CONSISTENT (and in our experience, very robust) way


We feel this sets the highest bar for consistent, high-quality experimental data to compare against. We also hope this is generally useful for the community in the future.

### Files

* `sequences.fasta` - the sequences for all the proteins in this directory (53 proteins)
* `mff_analysis_all.csv` - a CSV file we 53 entries with three columns (name, $R_g$ value, $R_g$ error), as calculated for each scattering data directly using the [Molecular Form Factor](https://sosnick.uchicago.edu/SAXSonIDPs/). The Rg/error values here are summaries; for EACH entry, the full MFF output is in the `mff_out.csv` file in each directory.


### Subdirectories
* Each subdirectory (e.g., `alpha_syn`) contains a set of files:
	* `<filename>.dat` (or something like this), which is the original scattering data. If no `_clean.dat` file (described below) is present, this is the file that will be used for the scattering data.
	* `SASD<ID>.dat` - [optional] - some of the files have the original [SASBDB](https://www.sasbdb.org/) scattering data,
	* `<sequence-name>_clean.dat` - the final, cleaned scattering data in a self-consistent format, which, _if available_ will be the scattering data to use. 
	* `mff_out.csv` - full output from the MFF analysis of the cleaned scattering data.

File: mff_out.csv
#File Plotted Below: a1_lcd_clean.dat,,,,,,,,,,
,,,,,,,,,,
    #Fit from 0.01-0.15 with polymer MFF,,,,,,,,,,
#Initial search parameter for I0 = 38.7901,,,,,,,,,,
#Initial search parameter for Rg = 30,,,,,,,,,,
#Initial search parameter for nu = 0.499881,,,,,,,,,,
#BestFit for I0 = 41.92816 +- 0.18153,,,,,,,,,,
#BestFit for I(0)/I0 = 1.00000 +- 0.00433,,,,,,,,,,
#BestFit for Rg = 27.26066 +- 0.16034,,,,,,,,,,
#BestFit for nu = 0.44670 +- 0.00612,,,,,,,,,,
#BestFit reduced chisquared = 0.12745,,,,,,,,,,
#-------------,,,,,,,,,,
#-------------,,,,,,,,,,
,,,,,,,,,,
    #q,I(q),Error,fit,I(q)/I0,Error/I0,fit/I0,qRg,((qRg)^2)I(q)/I0,((qRg)^2)*Error/I0,((qRg)^2)*fit/I0
0.00535,17.605,61.777,41.65937,0.41988,1.4734,0.99359,0.1459,0.00894,0.03136,0.02115
0.00864,38.388,14.877,41.15531,0.91557,0.35482,0.98157,0.23556,0.05081,0.01969,0.05447
0.01193,34.114,7.4937,40.42434,0.81363,0.17873,0.96413,0.32522,0.08606,0.0189,0.10197
0.01522,36.848,4.9361,39.49221,0.87884,0.11773,0.9419,0.41488,0.15127,0.02026,0.16213
0.01851,38.844,3.5531,38.38483,0.92644,0.08474,0.91549,0.50454,0.23584,0.02157,0.23305
0.0218,36.773,2.8968,37.12807,0.87705,0.06909,0.88552,0.5942,0.30966,0.02439,0.31265
0.02509,35.535,2.4953,35.7478,0.84752,0.05951,0.8526,0.68386,0.39636,0.02783,0.39873
0.02838,32.668,2.6371,34.2699,0.77914,0.0629,0.81735,0.77352,0.46619,0.03763,0.48905
0.03166,30.472,2.4936,32.72023,0.72677,0.05947,0.78039,0.86318,0.5415,0.04431,0.58145
0.03495,29.743,2.3745,31.12466,0.70938,0.05663,0.74233,0.95284,0.64405,0.05142,0.67397
0.03824,28.651,2.3713,29.50887,0.68334,0.05656,0.7038,1.0425,0.74266,0.06147,0.76489
0.04153,27.393,2.3513,27.89311,0.65333,0.05608,0.66526,1.13216,0.83744,0.07188,0.85272
0.04482,26.285,2.333,26.29168,0.62691,0.05564,0.62707,1.22182,0.93588,0.08307,0.93611
0.04811,25.853,2.2565,24.71858,0.6166,0.05382,0.58955,1.31148,1.06055,0.09257,1.01401
0.0514,24.568,2.2123,23.18779,0.58595,0.05276,0.55304,1.40114,1.15035,0.10359,1.08572
0.05469,22.115,2.1909,21.7133,0.52745,0.05225,0.51787,1.4908,1.17225,0.11613,1.15096
0.05798,20.236,2.1188,20.30747,0.48264,0.05053,0.48434,1.58046,1.20556,0.12623,1.20982
0.06127,19.122,2.1013,18.97341,0.45607,0.05012,0.45252,1.67012,1.27211,0.13979,1.26223
0.06456,18.697,2.0351,17.71066,0.44593,0.04854,0.4224,1.75981,1.38102,0.15032,1.30816
0.06784,16.791,2.0353,16.51986,0.40047,0.04854,0.394,1.84947,1.36983,0.16604,1.34771
0.07113,15.147,1.9949,15.4005,0.36126,0.04758,0.36731,1.93913,1.35843,0.17891,1.38116
0.07442,12.921,1.9667,14.35246,0.30817,0.04691,0.34231,2.02879,1.26843,0.19307,1.40895
0.07771,13.124,1.9396,13.37441,0.31301,0.04626,0.31898,2.11845,1.40475,0.20761,1.43155
0.081,11.785,1.913,12.46305,0.28108,0.04563,0.29725,2.20811,1.37046,0.22246,1.44931
0.08429,11.183,1.8813,11.61491,0.26672,0.04487,0.27702,2.29777,1.40821,0.2369,1.4626
0.08758,11.023,1.835,10.82651,0.2629,0.04377,0.25822,2.38743,1.4985,0.24946,1.47179
0.09087,11.386,2.0311,10.09435,0.27156,0.04844,0.24075,2.47709,1.66629,0.29724,1.47726
0.09416,10.194,2.0601,9.41498,0.24313,0.04913,0.22455,2.56675,1.6018,0.32371,1.47939
0.09745,8.0029,1.8622,8.78513,0.19087,0.04441,0.20953,2.65641,1.34689,0.31341,1.47854
0.10073,8.7399,1.7949,8.2023,0.20845,0.04281,0.19563,2.74597,1.57178,0.32279,1.4751
0.10402,6.9179,1.7786,7.66174,0.16499,0.04242,0.18274,2.83565,1.32671,0.3411,1.46936
0.10731,7.8149,1.7538,7.1612,0.18639,0.04183,0.1708,2.92534,1.59504,0.35795,1.46161
0.1106,7.2492,1.7195,6.69749,0.1729,0.04101,0.15974,3.01503,1.57169,0.3728,1.45208
0.11389,5.5297,1.7106,6.2677,0.13189,0.0408,0.14949,3.10472,1.27128,0.39327,1.44094
0.11718,5.754,1.681,5.86955,0.13723,0.04009,0.13999,3.1944,1.40037,0.40911,1.42849
0.12047,5.7807,1.668,5.50084,0.13787,0.03978,0.1312,3.28409,1.48698,0.42906,1.41499
0.12376,4.8013,1.7984,5.1594,0.11451,0.04289,0.12305,3.37378,1.30343,0.48822,1.40064
0.12705,5.3011,1.6613,4.84305,0.12643,0.03962,0.11551,3.46347,1.51664,0.4753,1.38559
0.13034,4.0101,1.6355,4.54963,0.09564,0.03901,0.10851,3.55315,1.20747,0.49246,1.36993
0.13362,5.2404,1.6007,4.27818,0.12499,0.03818,0.10204,3.64257,1.65834,0.50655,1.35384
0.13691,3.8794,1.5941,4.02564,0.09252,0.03802,0.09601,3.73226,1.28885,0.52961,1.33743
0.1402,3.4253,1.57,3.79146,0.08169,0.03745,0.09043,3.82194,1.19333,0.54697,1.3209
0.14349,3.0003,1.5646,3.57422,0.07156,0.03732,0.08525,3.91163,1.0949,0.57097,1.30434
0.14678,3.6241,1.5346,3.37251,0.08644,0.0366,0.08044,4.00132,1.38389,0.586,1.28782
0.15007,3.3983,1.5282,3.18502,0.08105,0.03645,0.07596,4.09101,1.35649,0.61001,1.27135
0.15336,3.7303,1.5901,3.01074,0.08897,0.03792,0.07181,4.18069,1.55502,0.66285,1.25506
0.15665,2.2157,1.7023,2.84876,0.05285,0.0406,0.06794,4.27038,0.96369,0.7404,1.23903
0.15994,2.2272,1.539,2.69817,0.05312,0.03671,0.06435,4.36007,1.00981,0.69778,1.22335
0.16323,1.7442,1.5187,2.55807,0.0416,0.03622,0.06101,4.44976,0.82369,0.7172,1.20803
0.16651,2.3613,1.4885,2.42792,0.05632,0.0355,0.05791,4.53917,1.16038,0.73147,1.19312
0.1698,2.9108,1.4669,2.30618,0.06942,0.03499,0.055,4.62886,1.48749,0.74962,1.17852
0.17309,2.5802,1.4602,2.19265,0.06154,0.03483,0.0523,4.71855,1.37014,0.7754,1.16434
0.17638,2.2288,1.4362,2.08675,0.05316,0.03425,0.04977,4.80823,1.22896,0.79192,1.15063
0.17967,1.4593,1.4315,1.9879,0.0348,0.03414,0.04741,4.89792,0.83495,0.81905,1.1374
0.18296,1.3203,1.4134,1.8955,0.03149,0.03371,0.04521,4.98761,0.78334,0.83858,1.12461
0.18625,1.4971,1.4137,1.809,0.03571,0.03372,0.04315,5.0773,0.92047,0.86919,1.11224
0.18954,2.3704,1.3878,1.72796,0.05653,0.0331,0.04121,5.16698,1.50935,0.88368,1.10028
0.19283,2.8178,1.3656,1.65202,0.06721,0.03257,0.0394,5.25667,1.85706,0.89999,1.08876
0.19612,1.1129,1.3608,1.5808,0.02654,0.03246,0.0377,5.34636,0.75869,0.92769,1.07767
0.1994,0.77488,1.3586,1.51413,0.01848,0.0324,0.03611,5.43577,0.54607,0.95743,1.06704
0.20269,1.7538,1.3498,1.45122,0.04183,0.03219,0.03461,5.52546,1.27706,0.98288,1.05673
0.20598,1.3094,1.331,1.39197,0.03123,0.03174,0.0332,5.61515,0.98467,1.00091,1.04676
0.20927,1.8996,1.3274,1.33614,0.04531,0.03166,0.03187,5.70484,1.47449,1.03034,1.03713
0.21256,1.4243,1.3109,1.28349,0.03397,0.03127,0.03061,5.79452,1.14059,1.04978,1.02783
0.21585,1.6431,1.3211,1.23381,0.03919,0.03151,0.02943,5.88421,1.35686,1.09095,1.01887
0.21914,0.89963,1.4243,1.18685,0.02146,0.03397,0.02831,5.9739,0.76573,1.2123,1.0102
0.22243,1.2113,1.3346,1.1424,0.02889,0.03183,0.02725,6.06359,1.0622,1.17032,1.00178
0.22572,1.6023,1.3128,1.1003,0.03822,0.03131,0.02624,6.15328,1.44694,1.18551,0.99361
0.229,1.9944,1.2891,1.06051,0.04757,0.03075,0.02529,6.24269,1.85375,1.19819,0.98572
0.23229,1.1892,1.2872,1.02268,0.02836,0.0307,0.02439,6.33238,1.13732,1.23104,0.97806
0.23558,1.1199,1.27,0.98677,0.02671,0.03029,0.02353,6.42207,1.1016,1.24924,0.97064
0.23887,0.17477,1.2717,0.95266,0.00417,0.03033,0.02272,6.51175,0.17675,1.2861,0.96345
0.24216,0.94986,1.2443,0.92022,0.02265,0.02968,0.02195,6.60144,0.98726,1.29329,0.95645
0.24545,1.1485,1.2513,0.88936,0.02739,0.02984,0.02121,6.69113,1.22638,1.33615,0.94966
0.24874,0.3472,1.2378,0.85999,0.00828,0.02952,0.02051,6.78082,0.38075,1.3574,0.94308
0.25203,0.4965,1.2261,0.83201,0.01184,0.02924,0.01984,6.8705,0.55897,1.38038,0.9367
0.25532,1.2885,1.2189,0.80534,0.03073,0.02907,0.01921,6.96019,1.48875,1.40833,0.9305
0.25861,0.36085,1.2084,0.7799,0.00861,0.02882,0.0186,7.04988,0.42774,1.43241,0.92447
0.2619,0.26435,1.2073,0.7556,0.0063,0.02879,0.01802,7.13957,0.32138,1.46775,0.91861
0.26519,1.3597,1.1924,0.73239,0.03243,0.02844,0.01747,7.22925,1.69482,1.48629,0.9129
0.26847,0.78727,1.1936,0.71029,0.01878,0.02847,0.01694,7.31867,1.00573,1.52481,0.90739
0.27176,1.4155,1.2513,0.68909,0.03376,0.02984,0.01644,7.40836,1.85288,1.63794,0.90202
0.27505,1.1739,1.2913,0.66882,0.028,0.0308,0.01595,7.49804,1.57406,1.73148,0.89681
0.27834,0.61215,1.2979,0.64942,0.0146,0.03096,0.01549,7.58773,0.84057,1.78221,0.89176
0.28163,0.57277,1.4477,0.63085,0.01366,0.03453,0.01505,7.67742,0.8052,2.03518,0.88685
0.28492,1.174,1.5029,0.61307,0.028,0.03584,0.01462,7.76711,1.6892,2.16243,0.88211
0.28821,0.38987,1.5553,0.59604,0.0093,0.03709,0.01422,7.85679,0.57399,2.28981,0.87752
0.2915,0.00825,1.6259,0.57971,0.0002,0.03878,0.01383,7.94648,0.01243,2.44871,0.87308
0.29479,1.3239,1.6382,0.56406,0.03158,0.03907,0.01345,8.03617,2.03914,2.52324,0.86879
0.29807,0.00283,1.7313,0.54908,0.00007,0.04129,0.0131,8.12558,0.00445,2.72631,0.86465
0.30136,0.72525,1.7442,0.53467,0.0173,0.0416,0.01275,8.21527,1.16742,2.80759,0.86064
0.30465,0.77429,1.82,0.52083,0.01847,0.04341,0.01242,8.30496,1.27372,2.99392,0.85677
0.30794,0.33452,1.8422,0.50755,0.00798,0.04394,0.01211,8.39465,0.56224,3.09625,0.85305
0.31123,0.53398,1.8988,0.49478,0.01274,0.04529,0.0118,8.48433,0.91676,3.25993,0.84946
0.31452,0.97503,1.9515,0.48251,0.02325,0.04654,0.01151,8.57402,1.70955,3.42162,0.846
0.31781,-0.80046,1.9808,0.47071,-0.01909,0.04724,0.01123,8.66371,-1.43298,3.54603,0.84266
0.3211,0.82601,2.0672,0.45936,0.0197,0.0493,0.01096,8.7534,1.5095,3.77772,0.83945
0.32439,0.52174,2.074,0.44843,0.01244,0.04947,0.0107,8.84308,0.9731,3.86821,0.83637
0.32768,1.1368,2.2137,0.43791,0.02711,0.0528,0.01044,8.93277,2.16347,4.21294,0.8334
0.33097,-0.63888,2.2316,0.42778,-0.01524,0.05322,0.0102,9.02246,-1.2404,4.33272,0.83055
0.33425,0.84328,2.3687,0.41804,0.02011,0.05649,0.00997,9.11187,1.66987,4.69051,0.82781
0.33754,-0.15935,2.4253,0.40863,-0.0038,0.05784,0.00975,9.20156,-0.32179,4.89759,0.82517
0.34083,2.0242,2.4782,0.39954,0.04828,0.05911,0.00953,9.29125,4.16769,5.10245,0.82263
0.34412,-0.15906,2.6305,0.39077,-0.00379,0.06274,0.00932,9.38094,-0.33385,5.52109,0.82019
0.34741,0.38471,2.6173,0.38231,0.00918,0.06242,0.00912,9.47062,0.82297,5.59893,0.81783
0.3507,1.7046,2.7809,0.37413,0.04066,0.06633,0.00892,9.56031,3.71587,6.06211,0.81556
0.35399,0.39824,2.8072,0.36622,0.0095,0.06695,0.00873,9.65,0.88449,6.23479,0.81338
0.35728,1.9766,3.1079,0.35858,0.04714,0.07412,0.00855,9.73969,4.47201,7.03155,0.81128
0.36057,1.4584,3.1461,0.35119,0.03478,0.07504,0.00838,9.82937,3.36064,7.24967,0.80926
0.36385,-1.2432,3.6121,0.34407,-0.02965,0.08615,0.00821,9.91879,-2.91711,8.47562,0.80733
0.36714,-1.3937,3.7477,0.33715,-0.03324,0.08938,0.00804,10.00848,-3.32966,8.95355,0.80548
0.37043,1.5557,4.0209,0.33046,0.0371,0.0959,0.00788,10.09816,3.7836,9.77918,0.80372
0.37372,1.1874,4.6897,0.32399,0.02832,0.11185,0.00773,10.18785,2.93939,11.60926,0.80203
0.37701,1.9663,4.7864,0.31772,0.0469,0.11416,0.00758,10.27754,4.95362,12.05817,0.80042
0.3803,2.0789,6.6489,0.31165,0.04958,0.15858,0.00743,10.36723,5.32909,17.04391,0.79889
0.38359,4.1672,7.4789,0.30576,0.09939,0.17837,0.00729,10.45691,10.8679,19.50469,0.79742
0.38658,4.2479,12.158,0.30057,0.10131,0.28997,0.00717,10.53842,11.25174,32.20384,0.79615