Folder: supportingdata/2025/starling_2025/figures/experimental_comparison/saxs_scattering/experiment/alpha_syn

Note: 2025/starling_2025/figures/experimental_comparison/saxs_scattering/experiment/readme.md
# About

This directory contains scattering data and their reanalysis using the (wonderful) MFF of [Riback et al.](https://sosnick.uchicago.edu/SAXSonIDPs/).

This means for every SAXS piece of SAXS data here, we:

1. Verified it was of high quality
2. Re-evaluated it in a CONSISTENT (and in our experience, very robust) way


We feel this sets the highest bar for consistent, high-quality experimental data to compare against. We also hope this is generally useful for the community in the future.

### Files

* `sequences.fasta` - the sequences for all the proteins in this directory (53 proteins)
* `mff_analysis_all.csv` - a CSV file we 53 entries with three columns (name, $R_g$ value, $R_g$ error), as calculated for each scattering data directly using the [Molecular Form Factor](https://sosnick.uchicago.edu/SAXSonIDPs/). The Rg/error values here are summaries; for EACH entry, the full MFF output is in the `mff_out.csv` file in each directory.


### Subdirectories
* Each subdirectory (e.g., `alpha_syn`) contains a set of files:
	* `<filename>.dat` (or something like this), which is the original scattering data. If no `_clean.dat` file (described below) is present, this is the file that will be used for the scattering data.
	* `SASD<ID>.dat` - [optional] - some of the files have the original [SASBDB](https://www.sasbdb.org/) scattering data,
	* `<sequence-name>_clean.dat` - the final, cleaned scattering data in a self-consistent format, which, _if available_ will be the scattering data to use. 
	* `mff_out.csv` - full output from the MFF analysis of the cleaned scattering data.

File: mff_out.csv
#File Plotted Below: alpha_syn_clean.dat,,,,,,,,,,
,,,,,,,,,,
    #Fit from 0.01-0.15 with polymer MFF,,,,,,,,,,
#Initial search parameter for I0 = 1670.32,,,,,,,,,,
#Initial search parameter for Rg = 30,,,,,,,,,,
#Initial search parameter for nu = 0.499881,,,,,,,,,,
#BestFit for I0 = 1748.06 +- 4.59322,,,,,,,,,,
#BestFit for I(0)/I0 = 1.00000 +- 0.00263,,,,,,,,,,
#BestFit for Rg = 36.82572 +- 0.09497,,,,,,,,,,
#BestFit for nu = 0.59139 +- 0.00345,,,,,,,,,,
#BestFit reduced chisquared = 1.00969,,,,,,,,,,
#-------------,,,,,,,,,,
#-------------,,,,,,,,,,
,,,,,,,,,,
    #q,I(q),Error,fit,I(q)/I0,Error/I0,fit/I0,qRg,((qRg)^2)I(q)/I0,((qRg)^2)*Error/I0,((qRg)^2)*fit/I0
0.00974,1650.547,49.55999,1674.38,0.94421,0.02835,0.95785,0.3586,0.12142,0.00365,0.12317
0.01416,1570.14,32.12568,1595.37,0.89822,0.01838,0.91265,0.52159,0.24437,0.005,0.24829
0.01859,1548.106,25.16474,1496.45,0.88561,0.0144,0.85606,0.68459,0.41505,0.00675,0.40121
0.02302,1433.181,21.53404,1383.72,0.81987,0.01232,0.79157,0.84759,0.589,0.00885,0.56867
0.02744,1252.087,19.50044,1263.26,0.71627,0.01116,0.72266,1.01059,0.73152,0.01139,0.73804
0.03187,1154.307,17.76517,1140.79,0.66033,0.01016,0.6526,1.17358,0.90948,0.014,0.89883
0.03629,1016.18,16.5727,1020.71,0.58132,0.00948,0.58391,1.33658,1.0385,0.01694,1.04312
0.04072,909.033,15.76822,907.125,0.52002,0.00902,0.51893,1.49958,1.1694,0.02028,1.16694
0.04515,804.5699,14.94276,803.512,0.46026,0.00855,0.45966,1.66258,1.27224,0.02363,1.27057
0.04957,697.9139,16.13193,710.66,0.39925,0.00923,0.40654,1.82558,1.33059,0.03076,1.35489
0.054,648.418,14.67068,628.673,0.37093,0.00839,0.35964,1.98857,1.46683,0.03319,1.42217
0.05843,572.7473,13.61254,557.483,0.32765,0.00779,0.31891,2.15157,1.51676,0.03605,1.47634
0.06285,498.1905,12.97437,496.1488,0.285,0.00742,0.28383,2.31457,1.52678,0.03976,1.52053
0.06728,461.9074,12.35701,443.455,0.26424,0.00707,0.25368,2.47756,1.62199,0.04339,1.55719
0.0717,400.3376,12.02015,398.21,0.22902,0.00688,0.2278,2.64056,1.59684,0.04795,1.58835
0.07613,346.6517,11.52108,359.357,0.19831,0.00659,0.20557,2.80356,1.55868,0.0518,1.61581
0.08056,324.1688,11.16346,325.893,0.18544,0.00639,0.18643,2.96656,1.632,0.0562,1.64068
0.08498,301.5448,10.7967,296.85,0.1725,0.00618,0.16982,3.12956,1.68951,0.06049,1.6632
0.08941,274.6131,10.57111,271.541,0.1571,0.00605,0.15534,3.29255,1.70306,0.06556,1.68401
0.09384,243.1659,10.37954,249.412,0.13911,0.00594,0.14268,3.45555,1.66104,0.0709,1.70371
0.09826,228.3425,10.14639,229.9238,0.13063,0.0058,0.13153,3.61855,1.7104,0.076,1.72225
0.10269,210.8648,9.85817,212.686,0.12063,0.00564,0.12167,3.78156,1.725,0.08065,1.73989
0.10711,182.7661,10.25993,197.394,0.10455,0.00587,0.11292,3.94455,1.6268,0.09132,1.757
0.11154,170.4881,9.96973,183.749,0.09753,0.0057,0.10512,4.10754,1.64551,0.09623,1.7735
0.11597,175.9509,9.51475,171.526,0.10065,0.00544,0.09812,4.27053,1.83568,0.09927,1.78952
0.12039,164.5896,9.28623,160.551,0.09416,0.00531,0.09185,4.43352,1.85073,0.10442,1.80532
0.12482,140.0609,9.08306,150.652,0.08012,0.0052,0.08618,4.59655,1.69287,0.10978,1.82087
0.12925,144.6493,8.8789,141.694,0.08275,0.00508,0.08106,4.75954,1.87452,0.11506,1.83622
0.13367,131.9153,8.63941,133.565,0.07546,0.00494,0.07641,4.92253,1.82858,0.11976,1.85145
0.1381,129.2041,8.52074,126.1549,0.07391,0.00487,0.07217,5.08552,1.91157,0.12606,1.86646
0.14252,106.7618,8.32647,119.375,0.06107,0.00476,0.06829,5.24851,1.68241,0.13121,1.88117
0.14695,97.02151,8.17749,113.154,0.0555,0.00468,0.06473,5.41154,1.62537,0.13699,1.89564
0.15138,109.4889,8.04738,107.426,0.06263,0.0046,0.06145,5.57453,1.94639,0.14306,1.90972
0.1558,114.4884,7.95137,102.133,0.06549,0.00455,0.05843,5.73752,2.15602,0.14974,1.92335
0.16023,91.83051,7.82184,97.2305,0.05253,0.00447,0.05562,5.90051,1.82898,0.15579,1.93653
0.16465,101.4523,7.99489,92.67498,0.05804,0.00457,0.05302,6.0635,2.13379,0.16815,1.94918
0.16908,102.2691,8.10177,88.43059,0.0585,0.00463,0.05059,6.22653,2.26819,0.17969,1.96127
0.17351,97.44196,7.7812,84.47499,0.05574,0.00445,0.04832,6.38952,2.27575,0.18173,1.97291
0.17793,75.77178,7.61756,80.78373,0.04335,0.00436,0.04621,6.55251,1.86108,0.1871,1.98418
0.18236,77.67669,7.54265,77.33506,0.04444,0.00431,0.04424,6.7155,2.00397,0.19459,1.99515
0.18679,92.89471,7.56069,74.10999,0.05314,0.00433,0.0424,6.87849,2.51432,0.20464,2.00588
0.19121,76.15857,7.5406,71.08916,0.04357,0.00431,0.04067,7.04152,2.1602,0.21389,2.01641
0.19564,80.56928,7.57103,68.25664,0.04609,0.00433,0.03905,7.20451,2.39233,0.22481,2.02673
0.20006,71.20261,7.5679,65.59724,0.04073,0.00433,0.03753,7.3675,2.21095,0.23499,2.03689
0.20449,68.63305,7.50275,63.09679,0.03926,0.00429,0.0361,7.53049,2.2265,0.24339,2.0469
0.20892,69.18067,7.55496,60.74209,0.03958,0.00432,0.03475,7.69348,2.34247,0.25581,2.05673
0.21334,68.91692,7.45865,58.52216,0.03942,0.00427,0.03348,7.85647,2.43346,0.26336,2.06642
0.21777,63.42614,7.43345,56.42592,0.03628,0.00425,0.03228,8.0195,2.33349,0.27348,2.07595
0.2222,52.07869,7.3878,54.44436,0.02979,0.00423,0.03115,8.18249,1.99468,0.28296,2.08529
0.22662,58.84783,8.09527,52.56897,0.03366,0.00463,0.03007,8.34548,2.34464,0.32253,2.09447
0.23105,40.81479,7.84335,50.7921,0.02335,0.00449,0.02906,8.50847,1.6903,0.32482,2.1035
0.23547,63.40837,7.83236,49.10635,0.03627,0.00448,0.02809,8.67146,2.72756,0.33691,2.11235
0.2399,45.32604,7.92446,47.50488,0.02593,0.00453,0.02718,8.83449,2.02373,0.35381,2.12102
0.24433,50.16859,7.92847,45.9821,0.0287,0.00454,0.0263,8.99748,2.32336,0.36718,2.12948
0.24875,40.56855,7.90714,44.53167,0.02321,0.00452,0.02547,9.16047,1.94746,0.37957,2.1377
0.25318,57.25437,7.91365,43.14905,0.03275,0.00453,0.02468,9.32346,2.84712,0.39353,2.1457
0.2576,39.48745,7.94464,41.83007,0.02259,0.00454,0.02393,9.48645,2.03287,0.409,2.15347
0.26203,29.52857,7.94894,40.57037,0.01689,0.00455,0.02321,9.64948,1.57287,0.42341,2.16102
0.26646,45.93911,8.01597,39.367,0.02628,0.00459,0.02252,9.81247,2.53036,0.44153,2.16836
0.27088,36.03245,7.96559,38.21633,0.02061,0.00456,0.02186,9.97546,2.05117,0.45345,2.17549
0.27531,56.01446,8.01936,37.11511,0.03204,0.00459,0.02123,10.13845,3.29372,0.47155,2.18241
0.27974,42.44898,8.03106,36.06091,0.02428,0.00459,0.02063,10.30144,2.57695,0.48754,2.18915
0.28416,40.06845,8.8692,35.05138,0.02292,0.00507,0.02005,10.46447,2.51003,0.5556,2.19575
0.28859,36.22499,8.48131,34.08485,0.02072,0.00485,0.0195,10.62746,2.34051,0.54798,2.20223
0.29301,22.70685,8.28615,33.15875,0.01299,0.00474,0.01897,10.79045,1.51244,0.55192,2.20861
0.29744,53.42282,8.25039,32.2707,0.03056,0.00472,0.01846,10.95344,3.66666,0.56626,2.21489
0.30187,38.08633,8.25973,31.41835,0.02179,0.00473,0.01797,11.11643,2.69242,0.5839,2.22104
0.30629,38.22646,8.21085,30.5994,0.02187,0.0047,0.0175,11.27946,2.78217,0.5976,2.22706
0.31072,40.79047,8.27656,29.81231,0.02333,0.00473,0.01705,11.44245,3.0552,0.61991,2.23294
0.31515,32.87915,8.27036,29.05496,0.01881,0.00473,0.01662,11.60544,2.5333,0.63722,2.23865
0.31957,37.53759,8.16911,28.32566,0.02147,0.00467,0.0162,11.76843,2.97404,0.64722,2.24419
0.324,39.04373,8.17428,27.62289,0.02234,0.00468,0.0158,11.93142,3.17964,0.6657,2.24955
0.32842,30.34328,8.19327,26.94504,0.01736,0.00469,0.01541,12.09445,2.53909,0.6856,2.25473
0.33285,27.09577,8.14548,26.29218,0.0155,0.00466,0.01504,12.25744,2.32886,0.7001,2.25979
0.33728,40.63183,8.0874,25.66494,0.02324,0.00463,0.01468,12.42043,3.58577,0.71371,2.26494
0.3417,41.08078,8.92434,25.06411,0.0235,0.00511,0.01434,12.58342,3.72116,0.80838,2.27035
0.34613,32.45418,8.82424,24.4896,0.01857,0.00505,0.01401,12.74641,3.0164,0.82015,2.27615
0.35055,36.48307,8.59356,23.9405,0.02087,0.00492,0.0137,12.9094,3.47813,0.81927,2.28238
0.35498,40.01511,8.47323,23.41573,0.02289,0.00485,0.0134,13.07243,3.91182,0.82833,2.28909
0.35941,26.15009,8.46312,22.91492,0.01496,0.00484,0.01311,13.23542,2.62054,0.8481,2.29634
0.36383,40.37682,8.38823,22.43773,0.0231,0.0048,0.01284,13.39841,4.1465,0.86143,2.30424
0.36826,23.46068,8.37473,21.98397,0.01342,0.00479,0.01258,13.5614,2.46827,0.88109,2.31291
0.37269,23.29949,8.35464,21.55371,0.01333,0.00478,0.01233,13.72439,2.51059,0.90024,2.32247
0.37711,25.18628,8.35949,21.1473,0.01441,0.00478,0.0121,13.88742,2.77875,0.92229,2.33314
0.38154,24.61058,8.33961,20.76537,0.01408,0.00477,0.01188,14.05041,2.77935,0.94182,2.34509
0.38596,25.97616,8.31133,20.40838,0.01486,0.00475,0.01167,14.2134,3.00202,0.96053,2.35856
0.39039,26.74105,8.24049,20.07697,0.0153,0.00471,0.01149,14.37639,3.1617,0.97431,2.37378
0.39482,24.48489,8.26421,19.77184,0.01401,0.00473,0.01131,14.53938,2.96096,0.99939,2.39101
0.39924,24.37066,8.91416,19.4934,0.01394,0.0051,0.01115,14.70241,3.01361,1.1023,2.4105
0.40367,28.08255,9.23705,19.24187,0.01606,0.00528,0.01101,14.8654,3.55003,1.16769,2.43245
0.40809,23.00864,8.79495,19.01724,0.01316,0.00503,0.01088,15.02839,2.97275,1.13632,2.45706
0.41252,31.5962,8.53725,18.81962,0.01807,0.00488,0.01077,15.19138,4.17131,1.12708,2.48455
0.41695,41.94199,8.52296,18.64926,0.02399,0.00488,0.01067,15.35437,5.6566,1.14947,2.51518
0.42137,30.98761,8.48947,18.5064,0.01773,0.00486,0.01059,15.5174,4.26843,1.16939,2.54919
0.4258,22.62803,8.47627,18.39147,0.01294,0.00485,0.01052,15.68039,3.18275,1.19223,2.58686
0.43023,25.51934,8.42928,18.30498,0.0146,0.00482,0.01047,15.84338,3.66444,1.2104,2.6285
0.43465,17.8308,8.38279,18.24754,0.0102,0.0048,0.01044,16.00637,2.61336,1.22862,2.67444
0.43908,26.53102,8.37577,18.21976,0.01518,0.00479,0.01042,16.16937,3.9681,1.25272,2.72503
0.44351,29.6736,8.33017,18.22231,0.01698,0.00477,0.01042,16.33239,4.52806,1.27115,2.78065
0.44793,33.56529,8.32778,18.25585,0.0192,0.00476,0.01044,16.49538,5.22466,1.29627,2.84164
0.45236,29.011,8.2928,18.32108,0.0166,0.00474,0.01048,16.65837,4.60543,1.31646,2.90843
0.45678,17.76113,8.2971,18.41898,0.01016,0.00475,0.01054,16.82136,2.87498,1.34305,2.98147
0.46121,25.35504,9.89588,18.55056,0.0145,0.00566,0.01061,16.98436,4.18413,1.63303,3.06124
0.46564,32.98035,10.89137,18.71676,0.01887,0.00623,0.01071,17.14735,5.54743,1.83197,3.14823
0.47006,1.64278,11.91449,18.91806,0.00094,0.00682,0.01082,17.31037,0.2816,2.04235,3.24289
0.47449,9.02445,13.0537,19.1546,0.00516,0.00747,0.01096,17.47336,1.57622,2.27997,3.34556
0.47891,1.13087,14.82296,19.42672,0.00065,0.00848,0.01111,17.63635,0.20122,2.63752,3.45668
0.48334,23.63861,16.87844,19.73507,0.01352,0.00966,0.01129,17.79935,4.28423,3.05902,3.57676
0.48777,5.01838,19.84678,20.08042,0.00287,0.01135,0.01149,17.96234,0.92626,3.66318,3.7063
0.49219,10.94584,23.81629,20.46361,0.00626,0.01362,0.01171,18.12536,2.05715,4.476,3.8459
0.49662,16.60118,27.9198,20.88507,0.0095,0.01597,0.01195,18.28835,3.17637,5.342,3.99602
0.49994,69.70514,33.79811,21.22657,0.03988,0.01933,0.01214,18.41058,13.51581,6.55345,4.11583