Folder: supportingdata/2025/starling_2025/figures/experimental_comparison/saxs_scattering/experiment/anac046

Note: 2025/starling_2025/figures/experimental_comparison/saxs_scattering/experiment/anac046/readme.md
trimmed first 2 datapoints

File: mff_out.csv
#File Plotted Below: anac046_clean.dat,,,,,,,,,,
,,,,,,,,,,
    #Fit from 0.01-0.15 with polymer MFF,,,,,,,,,,
#Initial search parameter for I0 = 17648.3,,,,,,,,,,
#Initial search parameter for Rg = 30,,,,,,,,,,
#Initial search parameter for nu = 0.499881,,,,,,,,,,
#BestFit for I0 = 18559.1 +- 21.43241,,,,,,,,,,
#BestFit for I(0)/I0 = 1.00000 +- 0.00115,,,,,,,,,,
#BestFit for Rg = 37.68252 +- 0.04025,,,,,,,,,,
#BestFit for nu = 0.57603 +- 0.00118,,,,,,,,,,
#BestFit reduced chisquared = 1.22512,,,,,,,,,,
#-------------,,,,,,,,,,
#-------------,,,,,,,,,,
,,,,,,,,,,
    #q,I(q),Error,fit,I(q)/I0,Error/I0,fit/I0,qRg,((qRg)^2)I(q)/I0,((qRg)^2)*Error/I0,((qRg)^2)*fit/I0
0.00308,5062,3506.166,18494.9,0.27275,0.18892,0.99654,0.11594,0.00367,0.00254,0.0134
0.00751,18193.74,341.492,18075.5,0.98031,0.0184,0.97394,0.28305,0.07854,0.00147,0.07803
0.01195,17396.68,155.9169,17333.2,0.93737,0.0084,0.93395,0.45016,0.18995,0.0017,0.18926
0.01638,16536.66,113.5483,16338.3,0.89103,0.00612,0.88034,0.61728,0.33951,0.00233,0.33544
0.02082,15271.13,93.23362,15161.3,0.82284,0.00502,0.81692,0.78439,0.50626,0.00309,0.50262
0.02525,13818.57,90.1795,13872.4,0.74457,0.00486,0.74747,0.9515,0.6741,0.0044,0.67673
0.02969,12498.13,76.69053,12540.7,0.67342,0.00413,0.67571,1.11861,0.84265,0.00517,0.84552
0.03412,11196.02,72.5795,11221,0.60326,0.00391,0.60461,1.28572,0.99724,0.00646,0.99947
0.03855,9908.186,67.91133,9960.11,0.53387,0.00366,0.53667,1.45284,1.12686,0.00772,1.13277
0.04299,8764.415,65.13932,8801.77,0.47224,0.00351,0.47426,1.61995,1.23928,0.00921,1.24456
0.04742,7758.175,63.24551,7762.56,0.41802,0.00341,0.41826,1.78706,1.335,0.01088,1.33576
0.05186,6837.354,57.76625,6843.57,0.36841,0.00311,0.36874,1.95417,1.40688,0.01189,1.40816
0.05629,5972.307,54.30082,6044.72,0.3218,0.00293,0.3257,2.12128,1.44805,0.01317,1.4656
0.06073,5318.655,51.8883,5357.29,0.28658,0.0028,0.28866,2.2884,1.50075,0.01464,1.51165
0.06516,4786.379,49.48757,4767.76,0.2579,0.00267,0.2569,2.45551,1.55501,0.01608,1.54896
0.0696,4242.274,47.19142,4262.64,0.22858,0.00254,0.22968,2.62262,1.57222,0.01749,1.57976
0.07403,3902.212,45.40988,3829.91,0.21026,0.00245,0.20636,2.78973,1.63636,0.01904,1.60604
0.07847,3520.91,43.14187,3458.32,0.18971,0.00232,0.18634,2.95685,1.65865,0.02032,1.62916
0.0829,3192.584,45.30116,3136.93,0.17202,0.00244,0.16902,3.12396,1.67879,0.02382,1.64952
0.08734,2935.685,44.0075,2857.81,0.15818,0.00237,0.15398,3.29107,1.71327,0.02568,1.66783
0.09177,2590.111,40.99517,2614.57,0.13956,0.00221,0.14088,3.45818,1.669,0.02642,1.68476
0.09621,2462.669,41.52413,2401.02,0.13269,0.00224,0.12937,3.6253,1.74396,0.02941,1.7003
0.10064,2239.521,39.28156,2212.73,0.12067,0.00212,0.11923,3.79241,1.73551,0.03044,1.71475
0.10508,2039.625,37.74217,2046.13,0.1099,0.00203,0.11025,3.95953,1.72298,0.03188,1.72847
0.10951,1888.148,36.49756,1897.82,0.10174,0.00197,0.10226,4.12661,1.73247,0.03349,1.74134
0.11395,1845.192,35.8047,1765.23,0.09942,0.00193,0.09511,4.29373,1.83297,0.03557,1.75354
0.11838,1733.347,34.60081,1646.38,0.0934,0.00186,0.08871,4.46086,1.85851,0.0371,1.76526
0.12282,1539.534,33.72437,1539.31,0.08295,0.00182,0.08294,4.62798,1.7767,0.03892,1.77644
0.12725,1439.19,32.89188,1442.55,0.07755,0.00177,0.07773,4.79506,1.78299,0.04075,1.78715
0.13168,1377.074,32.23078,1354.82,0.0742,0.00174,0.073,4.96218,1.82703,0.04276,1.7975
0.13612,1272.52,31.74856,1274.93,0.06857,0.00171,0.0687,5.12931,1.80395,0.04501,1.80737
0.14055,1177.383,32.69525,1201.97,0.06344,0.00176,0.06476,5.29643,1.77962,0.04942,1.81678
0.14499,1139.365,33.87931,1135.18,0.06139,0.00183,0.06117,5.46351,1.83252,0.05449,1.82579
0.14942,1059.673,31.03243,1073.77,0.0571,0.00167,0.05786,5.63064,1.81021,0.05301,1.83429
0.15386,999.493,30.41445,1017.18,0.05385,0.00164,0.05481,5.79776,1.81027,0.05509,1.8423
0.15829,967.16,29.64719,964.927,0.05211,0.0016,0.05199,5.96488,1.85415,0.05684,1.84987
0.16273,899.052,29.1039,916.543,0.04844,0.00157,0.04939,6.13196,1.82149,0.05896,1.85693
0.16716,860.64,28.70255,871.651,0.04637,0.00155,0.04697,6.29909,1.84,0.06136,1.86355
0.1716,846.466,28.46122,829.959,0.04561,0.00153,0.04472,6.46621,1.907,0.06412,1.86981
0.17603,755.516,27.77092,791.172,0.04071,0.0015,0.04263,6.63333,1.79122,0.06584,1.87576
0.18047,728.89,27.56218,755.056,0.03927,0.00149,0.04068,6.80041,1.81625,0.06868,1.88145
0.1849,750.553,27.73575,721.374,0.04044,0.00149,0.03887,6.96754,1.96328,0.07255,1.88695
0.18934,720.425,27.14524,689.921,0.03882,0.00146,0.03717,7.13466,1.97596,0.07445,1.89229
0.19377,699.534,26.82864,660.511,0.03769,0.00145,0.03559,7.30178,2.0096,0.07707,1.89749
0.19821,637.654,27.01437,632.983,0.03436,0.00146,0.03411,7.46886,1.91662,0.0812,1.90258
0.20264,637.358,28.51643,607.157,0.03434,0.00154,0.03271,7.63599,2.00242,0.08959,1.90754
0.20708,644.314,27.16069,582.902,0.03472,0.00146,0.03141,7.80311,2.11385,0.08911,1.91238
0.21151,575.938,26.54722,560.0982,0.03103,0.00143,0.03018,7.97019,1.97131,0.09087,1.9171
0.21594,543.727,26.1127,538.613,0.0293,0.00141,0.02902,8.13731,1.93993,0.09317,1.92168
0.22038,591.278,25.84216,518.3515,0.03186,0.00139,0.02793,8.30444,2.19712,0.09603,1.92614
0.22481,495.957,25.53795,499.225,0.02672,0.00138,0.0269,8.47156,1.91784,0.09875,1.93048
0.22925,548.12,25.22742,481.15,0.02953,0.00136,0.02593,8.63864,2.20399,0.10144,1.9347
0.23368,528.329,25.34335,464.043,0.02847,0.00137,0.025,8.80576,2.2074,0.10589,1.93881
0.23812,458.072,24.9763,447.837,0.02468,0.00135,0.02413,8.97289,1.98719,0.10835,1.9428
0.24255,463.081,24.75141,432.465,0.02495,0.00133,0.0233,9.14001,2.08445,0.11141,1.94664
0.24699,498.997,24.32627,417.872,0.02689,0.00131,0.02252,9.30709,2.32899,0.11354,1.95036
0.25142,460.014,24.39189,404,0.02479,0.00131,0.02177,9.47421,2.22485,0.11797,1.95393
0.25586,458.954,24.1105,390.8,0.02473,0.0013,0.02106,9.64134,2.29872,0.12076,1.95737
0.26029,455.177,25.7296,378.233,0.02453,0.00139,0.02038,9.80846,2.35952,0.13338,1.96066
0.26473,444.494,25.00042,366.26,0.02395,0.00135,0.01973,9.97554,2.38331,0.13405,1.96384
0.26916,384.057,24.39413,354.841,0.02069,0.00131,0.01912,10.14266,2.12884,0.13522,1.96689
0.2736,466.024,23.97112,343.946,0.02511,0.00129,0.01853,10.30979,2.66901,0.13729,1.96984
0.27803,413.086,23.76745,333.546,0.02226,0.00128,0.01797,10.47691,2.44314,0.14057,1.97271
0.28247,393.628,23.73728,323.614,0.02121,0.00128,0.01744,10.64399,2.40291,0.1449,1.97551
0.2869,403.605,23.49767,314.12,0.02175,0.00127,0.01693,10.81111,2.54179,0.14798,1.97824
0.29134,379.925,23.28317,305.042,0.02047,0.00125,0.01644,10.97824,2.46721,0.1512,1.98092
0.29577,347.244,23.01824,296.3563,0.01871,0.00124,0.01597,11.14536,2.32416,0.15406,1.98356
0.3002,381.871,22.9963,288.043,0.02058,0.00124,0.01552,11.31244,2.63313,0.15857,1.98615
0.30464,361.67,22.7,280.077,0.01949,0.00122,0.01509,11.47957,2.56806,0.16118,1.98871
0.30907,335.848,22.76884,272.44,0.0181,0.00123,0.01468,11.64669,2.45465,0.16641,1.99122
0.31351,335.556,22.51766,265.115,0.01808,0.00121,0.01428,11.81377,2.52339,0.16933,1.99367
0.31794,354.581,23.67583,258.076,0.01911,0.00128,0.01391,11.98089,2.74243,0.18312,1.99604
0.32238,267.644,23.55049,251.308,0.01442,0.00127,0.01354,12.14802,2.12819,0.18726,1.99829
0.32681,326.641,23.04186,244.802,0.0176,0.00124,0.01319,12.31514,2.66926,0.18829,2.00049
0.33125,312.631,22.71604,238.557,0.01685,0.00122,0.01285,12.48222,2.62457,0.1907,2.00271
0.33568,337.156,22.51697,232.562,0.01817,0.00121,0.01253,12.64934,2.90676,0.19413,2.00502
0.34012,346.123,22.39279,226.803,0.01865,0.00121,0.01222,12.81647,3.06344,0.19819,2.00738
0.34455,314.53,22.07124,221.258,0.01695,0.00119,0.01192,12.98359,2.85689,0.20047,2.0097
0.34899,315.472,21.97587,215.906,0.017,0.00118,0.01163,13.15067,2.93967,0.20478,2.01189
0.35342,322.057,21.99971,210.733,0.01735,0.00119,0.01135,13.31779,3.0778,0.21024,2.01391
0.35786,320.23,21.97571,205.731,0.01725,0.00118,0.01109,13.48492,3.13762,0.21532,2.01576
0.36229,304.388,22.04519,200.888,0.0164,0.00119,0.01082,13.65204,3.05678,0.22139,2.0174
0.36673,303.388,21.92918,196.196,0.01635,0.00118,0.01057,13.81912,3.12178,0.22564,2.0188
0.37116,283.473,22.07343,191.645,0.01527,0.00119,0.01033,13.98624,2.98783,0.23266,2.01996
0.3756,324.447,22.91962,187.226,0.01748,0.00123,0.01009,14.15337,3.50192,0.24738,2.02082
0.38003,262.327,23.98993,182.934,0.01413,0.00129,0.00986,14.32049,2.89868,0.26509,2.0214
0.38446,287.958,22.847,178.768,0.01552,0.00123,0.00963,14.48757,3.25659,0.25838,2.02173
0.3889,295.214,22.52133,174.72,0.01591,0.00121,0.00941,14.65469,3.41612,0.26061,2.02181
0.39333,264.361,22.34478,170.786,0.01424,0.0012,0.0092,14.82182,3.12927,0.2645,2.02161
0.39777,266.32,22.64717,166.955,0.01435,0.00122,0.009,14.98894,3.22395,0.27416,2.02108
0.4022,281.389,22.49474,163.221,0.01516,0.00121,0.00879,15.15602,3.48273,0.27842,2.02017
0.40664,233.13,22.55466,159.5737,0.01256,0.00122,0.0086,15.32314,2.94942,0.28535,2.01883
0.41107,248.261,22.69681,156.008,0.01338,0.00122,0.00841,15.49027,3.20973,0.29344,2.017
0.41551,275.421,22.536,152.5163,0.01484,0.00121,0.00822,15.65735,3.63811,0.29768,2.01463
0.41994,251.191,22.51579,149.092,0.01353,0.00121,0.00803,15.82447,3.38926,0.3038,2.01166
0.42438,234.523,22.69394,145.729,0.01264,0.00122,0.00785,15.99159,3.23155,0.31271,2.00804
0.42881,285.357,22.80062,142.422,0.01538,0.00123,0.00767,16.15872,4.01462,0.32078,2.00371
0.43325,223.662,23.42171,139.165,0.01205,0.00126,0.0075,16.3258,3.21206,0.33636,1.99858
0.43768,273.841,25.17048,135.949,0.01476,0.00136,0.00733,16.49292,4.01362,0.36892,1.99256
0.44212,222.269,24.21041,132.767,0.01198,0.0013,0.00715,16.66004,3.3241,0.36207,1.98557
0.44655,256.012,23.87744,129.618,0.01379,0.00129,0.00698,16.82717,3.90593,0.36429,1.97756
0.45099,246.724,23.66328,126.4997,0.01329,0.00128,0.00682,16.99425,3.83935,0.36823,1.9685
0.45542,247.941,23.67809,123.408,0.01336,0.00128,0.00665,17.16137,3.93455,0.37574,1.95835
0.45986,245.225,23.47299,120.336,0.01321,0.00126,0.00648,17.3285,3.96761,0.37978,1.94696
0.46429,223.428,23.69462,117.273,0.01204,0.00128,0.00632,17.49562,3.68501,0.3908,1.93419
0.46872,245.798,23.7117,114.212,0.01324,0.00128,0.00615,17.6627,4.13176,0.39858,1.91986
0.47316,249.446,23.51708,111.147,0.01344,0.00127,0.00599,17.82982,4.2728,0.40283,1.90386
0.47759,235.003,23.74931,108.075,0.01266,0.00128,0.00582,17.99695,4.10122,0.41447,1.8861
0.48203,253.458,23.86261,104.99,0.01366,0.00129,0.00566,18.16407,4.50583,0.42422,1.86645
0.48646,237.538,23.6913,101.889,0.0128,0.00128,0.00549,18.33115,4.30086,0.42895,1.8448
0.4909,211.306,23.66734,98.76373,0.01139,0.00128,0.00532,18.49827,3.89598,0.43637,1.82097
0.49533,212.124,25.71224,95.60952,0.01143,0.00139,0.00515,18.6654,3.98205,0.48268,1.79481
0.49977,235.2,25.51101,92.42073,0.01267,0.00137,0.00498,18.83248,4.49464,0.48751,1.76615