Folder: supportingdata/2025/starling_2025/figures/experimental_comparison/saxs_scattering/experiment/dss1

Note: 2025/starling_2025/figures/experimental_comparison/saxs_scattering/experiment/readme.md
# About

This directory contains scattering data and their reanalysis using the (wonderful) MFF of [Riback et al.](https://sosnick.uchicago.edu/SAXSonIDPs/).

This means for every SAXS piece of SAXS data here, we:

1. Verified it was of high quality
2. Re-evaluated it in a CONSISTENT (and in our experience, very robust) way


We feel this sets the highest bar for consistent, high-quality experimental data to compare against. We also hope this is generally useful for the community in the future.

### Files

* `sequences.fasta` - the sequences for all the proteins in this directory (53 proteins)
* `mff_analysis_all.csv` - a CSV file we 53 entries with three columns (name, $R_g$ value, $R_g$ error), as calculated for each scattering data directly using the [Molecular Form Factor](https://sosnick.uchicago.edu/SAXSonIDPs/). The Rg/error values here are summaries; for EACH entry, the full MFF output is in the `mff_out.csv` file in each directory.


### Subdirectories
* Each subdirectory (e.g., `alpha_syn`) contains a set of files:
	* `<filename>.dat` (or something like this), which is the original scattering data. If no `_clean.dat` file (described below) is present, this is the file that will be used for the scattering data.
	* `SASD<ID>.dat` - [optional] - some of the files have the original [SASBDB](https://www.sasbdb.org/) scattering data,
	* `<sequence-name>_clean.dat` - the final, cleaned scattering data in a self-consistent format, which, _if available_ will be the scattering data to use. 
	* `mff_out.csv` - full output from the MFF analysis of the cleaned scattering data.

File: mff_out.csv
#File Plotted Below: dss1_clean.dat,,,,,,,,,,
,,,,,,,,,,
    #Fit from 0.01-0.15 with polymer MFF,,,,,,,,,,
#Initial search parameter for I0 = 0.0268958,,,,,,,,,,
#Initial search parameter for Rg = 30,,,,,,,,,,
#Initial search parameter for nu = 0.499881,,,,,,,,,,
#BestFit for I0 = 0.02752 +- 0.00004,,,,,,,,,,
#BestFit for I(0)/I0 = 1.00000 +- 0.00130,,,,,,,,,,
#BestFit for Rg = 26.35988 +- 0.04097,,,,,,,,,,
#BestFit for nu = 0.56748 +- 0.00500,,,,,,,,,,
#BestFit reduced chisquared = 0.05663,,,,,,,,,,
#-------------,,,,,,,,,,
#-------------,,,,,,,,,,
,,,,,,,,,,
    #q,I(q),Error,fit,I(q)/I0,Error/I0,fit/I0,qRg,((qRg)^2)I(q)/I0,((qRg)^2)*Error/I0,((qRg)^2)*fit/I0
0.0045,0.03004,0.01458,0.02742,1.09161,0.52998,0.99634,0.11862,0.01536,0.00746,0.01402
0.00751,0.02695,0.00411,0.02718,0.97922,0.14952,0.98786,0.19792,0.03836,0.00586,0.0387
0.01052,0.02715,0.00281,0.02683,0.98663,0.10212,0.97502,0.27722,0.07582,0.00785,0.07493
0.01353,0.02573,0.00215,0.02637,0.93489,0.07824,0.95823,0.35652,0.11883,0.00995,0.1218
0.01653,0.02567,0.00184,0.02581,0.9328,0.06704,0.93789,0.43582,0.17718,0.01273,0.17814
0.01954,0.02488,0.00166,0.02516,0.904,0.06042,0.91441,0.51512,0.23988,0.01603,0.24264
0.02255,0.02439,0.00152,0.02444,0.88632,0.05536,0.8882,0.59442,0.31317,0.01956,0.31383
0.02556,0.02362,0.00142,0.02366,0.8584,0.05153,0.85966,0.67372,0.38963,0.02339,0.3902
0.02857,0.02297,0.00133,0.02282,0.83477,0.04848,0.8292,0.75302,0.47335,0.02749,0.47019
0.03158,0.02216,0.00127,0.02194,0.80534,0.04616,0.79723,0.83232,0.55791,0.03198,0.55229
0.03458,0.02136,0.00126,0.02103,0.77615,0.04585,0.76415,0.91163,0.64503,0.03811,0.63505
0.03759,0.01995,0.00131,0.0201,0.72483,0.04769,0.73038,0.99093,0.71174,0.04682,0.71718
0.0406,0.01949,0.00123,0.01916,0.70833,0.04487,0.6963,1.07023,0.81131,0.0514,0.79753
0.04361,0.01815,0.0012,0.01822,0.65967,0.04372,0.66221,1.14953,0.8717,0.05777,0.87505
0.04662,0.01756,0.00121,0.01729,0.63814,0.04413,0.62838,1.22883,0.9636,0.06664,0.94887
0.04963,0.01589,0.00125,0.01638,0.57739,0.04527,0.59508,1.30813,0.98803,0.07747,1.0183
0.05263,0.01571,0.00127,0.01548,0.57083,0.04597,0.56257,1.38743,1.09883,0.08849,1.08292
0.05564,0.01488,0.00127,0.01462,0.54067,0.04629,0.53111,1.46673,1.16315,0.09959,1.14258
0.05865,0.01365,0.00126,0.01379,0.49593,0.04575,0.50097,1.54603,1.18538,0.10936,1.19743
0.06166,0.01312,0.00124,0.013,0.47671,0.04492,0.47227,1.62533,1.25931,0.11866,1.24759
0.06467,0.01221,0.00122,0.01225,0.44384,0.04452,0.44501,1.70463,1.28968,0.12935,1.29309
0.06768,0.01158,0.0012,0.01154,0.42097,0.04365,0.4192,1.78393,1.33971,0.13892,1.33405
0.07068,0.01085,0.00118,0.01087,0.39412,0.04284,0.39484,1.86323,1.36823,0.14872,1.37072
0.07369,0.01032,0.00116,0.01023,0.37503,0.04225,0.37193,1.94253,1.41515,0.15942,1.40345
0.0767,0.00951,0.00116,0.00964,0.34575,0.04222,0.35048,2.02183,1.41335,0.1726,1.43271
0.07971,0.00922,0.00114,0.00909,0.33513,0.04129,0.33047,2.10113,1.47954,0.18228,1.45896
0.08272,0.00884,0.00112,0.00858,0.32121,0.04067,0.31183,2.18044,1.52714,0.19336,1.48252
0.08573,0.00819,0.0011,0.0081,0.29748,0.04001,0.29447,2.25974,1.51906,0.2043,1.50367
0.08873,0.00783,0.00109,0.00766,0.28456,0.03972,0.27832,2.33904,1.55685,0.21729,1.5227
0.09174,0.00708,0.00112,0.00725,0.25711,0.04063,0.2633,2.41834,1.50369,0.23759,1.53987
0.09475,0.00644,0.00109,0.00686,0.23414,0.03974,0.24934,2.49764,1.46059,0.24793,1.55542
0.09776,0.00617,0.00107,0.0065,0.22431,0.03893,0.23635,2.57694,1.48954,0.25854,1.56954
0.10077,0.00585,0.00105,0.00617,0.21271,0.03798,0.22429,2.65624,1.50081,0.26795,1.58247
0.10378,0.00566,0.00103,0.00586,0.20564,0.03744,0.21306,2.73554,1.53887,0.28014,1.5944
0.10678,0.0058,0.00103,0.00558,0.21077,0.03756,0.20263,2.81484,1.66996,0.29758,1.6055
0.10979,0.00598,0.00114,0.00531,0.21742,0.04126,0.19292,2.89414,1.82109,0.34557,1.61588
0.1128,0.00568,0.0011,0.00506,0.20645,0.03994,0.18386,2.97344,1.82533,0.35312,1.62558
0.11581,0.00501,0.00106,0.00483,0.18217,0.03837,0.1754,3.05274,1.69771,0.35757,1.6346
0.11882,0.00494,0.00102,0.00461,0.17941,0.0369,0.16749,3.13204,1.75997,0.36199,1.64301
0.12183,0.00437,0.00099,0.00441,0.15867,0.03589,0.16009,3.21134,1.6363,0.37008,1.65094
0.12484,0.00418,0.00098,0.00421,0.15196,0.03552,0.15316,3.29064,1.6455,0.38465,1.65849
0.12784,0.00411,0.00097,0.00404,0.1495,0.03508,0.14667,3.36994,1.69781,0.39833,1.6657
0.13085,0.00408,0.00096,0.00387,0.14815,0.03487,0.14059,3.44924,1.76259,0.41491,1.6726
0.13386,0.00366,0.00095,0.00371,0.13293,0.03444,0.13487,3.52855,1.65511,0.42879,1.67916
0.13687,0.00366,0.00094,0.00356,0.13295,0.03417,0.12948,3.60785,1.73054,0.44481,1.68536
0.13988,0.00377,0.00093,0.00342,0.13704,0.03372,0.1244,3.68715,1.86307,0.45845,1.69128
0.14289,0.00331,0.00091,0.00329,0.12042,0.0332,0.11962,3.76645,1.70829,0.47103,1.69699
0.14589,0.00326,0.00092,0.00317,0.11833,0.0333,0.11511,3.84575,1.75013,0.49248,1.70252
0.1489,0.00295,0.00091,0.00305,0.10733,0.03295,0.11086,3.92505,1.65347,0.50768,1.70787
0.15191,0.00308,0.0009,0.00294,0.11189,0.0327,0.10683,4.00435,1.7941,0.52427,1.71302
0.15492,0.00303,0.00089,0.00283,0.11012,0.03243,0.10302,4.08365,1.83639,0.54084,1.71794
0.15793,0.00241,0.00089,0.00274,0.08759,0.03222,0.0994,4.16295,1.51795,0.55846,1.72266
0.16094,0.00255,0.00088,0.00264,0.09274,0.03191,0.09598,4.24225,1.6691,0.57431,1.72724
0.16394,0.00262,0.00087,0.00255,0.09512,0.03151,0.09272,4.32155,1.7764,0.58845,1.73168
0.16695,0.00233,0.00086,0.00247,0.08462,0.03143,0.08964,4.40085,1.63897,0.60875,1.73602
0.16996,0.00247,0.00086,0.00239,0.08966,0.03111,0.0867,4.48015,1.79962,0.62442,1.74022
0.17297,0.00231,0.00085,0.00231,0.08411,0.03089,0.0839,4.55945,1.74843,0.64222,1.74426
0.17598,0.00238,0.00084,0.00224,0.08649,0.03057,0.08124,4.63875,1.86119,0.6578,1.74816
0.17899,0.0026,0.00083,0.00217,0.09451,0.03024,0.0787,4.71805,2.10369,0.67304,1.75194
0.18199,0.00186,0.00089,0.0021,0.06758,0.03231,0.07628,4.79735,1.55524,0.74371,1.75562
0.185,0.00222,0.00094,0.00204,0.08072,0.03405,0.07397,4.87666,1.91961,0.80973,1.7592
0.18801,0.00188,0.00086,0.00197,0.06836,0.03136,0.07177,4.95596,1.67896,0.7702,1.76269
0.19102,0.00236,0.00083,0.00192,0.0859,0.03031,0.06966,5.03526,2.17794,0.76855,1.76605
0.19403,0.00215,0.00083,0.00186,0.07808,0.03001,0.06764,5.11456,2.04258,0.7851,1.76928
0.19704,0.00184,0.00082,0.00181,0.06682,0.02968,0.0657,5.19386,1.8025,0.80066,1.7724
0.20004,0.0015,0.00081,0.00176,0.05436,0.02937,0.06385,5.27316,1.51159,0.81679,1.77542
0.20305,0.0018,0.0008,0.00171,0.06533,0.02905,0.06207,5.35246,1.8715,0.83229,1.77835
0.20606,0.00146,0.00079,0.00166,0.0529,0.02881,0.06037,5.43176,1.56089,0.85006,1.78119
0.20907,0.00192,0.00079,0.00162,0.06962,0.02874,0.05874,5.51106,2.11454,0.87286,1.78391
0.21208,0.00171,0.00079,0.00157,0.06218,0.02864,0.05716,5.59036,1.9433,0.89496,1.78652
0.21509,0.0017,0.00078,0.00153,0.06161,0.0284,0.05565,5.66966,1.98051,0.91307,1.78901
0.2181,0.00143,0.00078,0.00149,0.05194,0.02818,0.0542,5.74896,1.7167,0.9313,1.79141
0.2211,0.00132,0.00077,0.00145,0.04779,0.02803,0.05281,5.82826,1.62339,0.95218,1.79372
0.22411,0.00107,0.00076,0.00142,0.03871,0.02768,0.05146,5.90756,1.35095,0.96595,1.79594
0.22712,0.0016,0.00076,0.00138,0.05816,0.02766,0.05017,5.98686,2.08448,0.99135,1.79806
0.23013,0.00147,0.00077,0.00135,0.05334,0.02786,0.04892,6.06616,1.96289,1.02528,1.80008
0.23314,0.00128,0.00082,0.00131,0.04662,0.02975,0.04771,6.14547,1.76055,1.12364,1.80201
0.23615,0.00122,0.00083,0.00128,0.04419,0.03031,0.04655,6.22477,1.71239,1.17444,1.80385
0.23915,0.00116,0.00084,0.00125,0.04232,0.03064,0.04543,6.30407,1.68185,1.21773,1.80562
0.24216,0.00116,0.00085,0.00122,0.04211,0.03098,0.04435,6.38337,1.71572,1.26233,1.80733
0.24517,0.0011,0.00086,0.00119,0.03985,0.03116,0.04331,6.46267,1.66439,1.30137,1.80897
0.24818,0.00099,0.00086,0.00116,0.03612,0.03131,0.04231,6.54197,1.54591,1.34007,1.81055
0.25119,0.00126,0.00087,0.00114,0.04595,0.03144,0.04133,6.62127,2.01463,1.37849,1.81207
0.2542,0.00114,0.00087,0.00111,0.04151,0.03155,0.04039,6.70057,1.86354,1.41655,1.81353
0.2572,0.00123,0.001,0.00109,0.04454,0.03616,0.03948,6.77987,2.04739,1.66208,1.81495
0.26021,0.00157,0.00105,0.00106,0.05694,0.03824,0.03861,6.85917,2.67908,1.79908,1.81634
0.26322,0.00096,0.00109,0.00104,0.03478,0.03974,0.03776,6.93847,1.67451,1.91306,1.8177
0.26623,0.00068,0.00113,0.00102,0.02478,0.0411,0.03694,7.01777,1.22024,2.02425,1.81903
0.26924,0.00078,0.00117,0.00099,0.02828,0.04257,0.03614,7.09707,1.42418,2.14414,1.82032
0.27225,0.00086,0.0012,0.00097,0.03116,0.04379,0.03537,7.17637,1.60467,2.25508,1.8216
0.27525,0.00139,0.00124,0.00095,0.05059,0.04496,0.03463,7.25567,2.66311,2.36697,1.82285
0.27826,0.00099,0.00128,0.00093,0.03593,0.04658,0.0339,7.33497,1.933,2.50583,1.82409
0.28127,0.00094,0.00131,0.00091,0.03399,0.04775,0.0332,7.41427,1.86835,2.62484,1.82531
0.28428,0.00077,0.00136,0.0009,0.02815,0.04924,0.03253,7.49358,1.58054,2.76527,1.82651
0.28729,0.00091,0.00139,0.00088,0.03307,0.05044,0.03187,7.57288,1.89662,2.8929,1.82768
0.2903,0.00061,0.00144,0.00086,0.02206,0.05245,0.03123,7.65218,1.29189,3.07113,1.82883
0.2933,0.00078,0.00149,0.00084,0.02817,0.05401,0.03061,7.73148,1.68377,3.22859,1.82997
0.29631,0.00098,0.00151,0.00083,0.03579,0.05476,0.03001,7.81078,2.18357,3.34055,1.83108
0.29932,0.00075,0.0016,0.00081,0.02734,0.05798,0.02943,7.89008,1.70211,3.60939,1.83218
0.30233,0.00133,0.00166,0.00079,0.04828,0.06035,0.02887,7.96938,3.06631,3.83259,1.83326
0.30534,0.00052,0.00174,0.00078,0.01887,0.06319,0.02832,8.04868,1.22273,4.09366,1.83431
0.30835,0.00053,0.00181,0.00076,0.01928,0.06589,0.02778,8.12798,1.27391,4.35311,1.83534
0.31135,0.00117,0.00191,0.00075,0.04255,0.06949,0.02726,8.20728,2.8664,4.68072,1.83635
0.31436,0.00165,0.00201,0.00074,0.0599,0.07294,0.02676,8.28658,4.11298,5.00891,1.83734
0.31737,0.00089,0.00214,0.00072,0.0322,0.07769,0.02627,8.36588,2.25331,5.43704,1.83831
0.32038,0.00074,0.00227,0.00071,0.02673,0.0826,0.02579,8.44518,1.9063,5.89136,1.83927
0.32339,0.00031,0.00246,0.0007,0.01135,0.08949,0.02532,8.52448,0.8248,6.50279,1.84021
0.3264,0.0011,0.00263,0.00068,0.03989,0.09547,0.02487,8.60378,2.95316,7.06737,1.84113
0.32941,-0.0001,0.00295,0.00067,-0.00363,0.10734,0.02443,8.68308,-0.27388,8.09299,1.84203
0.33241,0.00139,0.00331,0.00066,0.05063,0.12045,0.024,8.76239,3.88727,9.24828,1.84291
0.33542,0.00076,0.00396,0.00065,0.02776,0.14385,0.02359,8.84169,2.17046,11.24569,1.84378
0.33843,0.00092,0.00526,0.00064,0.0335,0.19126,0.02318,8.92099,2.66576,15.22125,1.84464
0.34,0.0029,0.00656,0.00063,0.10541,0.23846,0.02297,8.96236,8.46681,19.15409,1.84508