Folder: supportingdata/2025/starling_2025/figures/experimental_comparison/saxs_scattering/experiment/e1a_36_146

Note: 2025/starling_2025/figures/experimental_comparison/saxs_scattering/experiment/readme.md
# About

This directory contains scattering data and their reanalysis using the (wonderful) MFF of [Riback et al.](https://sosnick.uchicago.edu/SAXSonIDPs/).

This means for every SAXS piece of SAXS data here, we:

1. Verified it was of high quality
2. Re-evaluated it in a CONSISTENT (and in our experience, very robust) way


We feel this sets the highest bar for consistent, high-quality experimental data to compare against. We also hope this is generally useful for the community in the future.

### Files

* `sequences.fasta` - the sequences for all the proteins in this directory (53 proteins)
* `mff_analysis_all.csv` - a CSV file we 53 entries with three columns (name, $R_g$ value, $R_g$ error), as calculated for each scattering data directly using the [Molecular Form Factor](https://sosnick.uchicago.edu/SAXSonIDPs/). The Rg/error values here are summaries; for EACH entry, the full MFF output is in the `mff_out.csv` file in each directory.


### Subdirectories
* Each subdirectory (e.g., `alpha_syn`) contains a set of files:
	* `<filename>.dat` (or something like this), which is the original scattering data. If no `_clean.dat` file (described below) is present, this is the file that will be used for the scattering data.
	* `SASD<ID>.dat` - [optional] - some of the files have the original [SASBDB](https://www.sasbdb.org/) scattering data,
	* `<sequence-name>_clean.dat` - the final, cleaned scattering data in a self-consistent format, which, _if available_ will be the scattering data to use. 
	* `mff_out.csv` - full output from the MFF analysis of the cleaned scattering data.

File: mff_out.csv
#File Plotted Below: e1a_36_146.dat,,,,,,,,,,
,,,,,,,,,,
    #Fit from 0.01-0.15 with polymer MFF,,,,,,,,,,
#Initial search parameter for I0 = 0.0104623,,,,,,,,,,
#Initial search parameter for Rg = 30,,,,,,,,,,
#Initial search parameter for nu = 0.499881,,,,,,,,,,
#BestFit for I0 = 0.01233 +- inf,,,,,,,,,,
#BestFit for I(0)/I0 = 1.00000 +- inf,,,,,,,,,,
#BestFit for Rg = 37.12369 +- inf,,,,,,,,,,
#BestFit for nu = 0.60280 +- inf,,,,,,,,,,
#BestFit reduced chisquared = 1.58682,,,,,,,,,,
#-------------,,,,,,,,,,
#-------------,,,,,,,,,,
,,,,,,,,,,
    #q,I(q),Error,fit,I(q)/I0,Error/I0,fit/I0,qRg,((qRg)^2)I(q)/I0,((qRg)^2)*Error/I0,((qRg)^2)*fit/I0
0.01779,0.01087,0.00018,0.01067,0.88114,0.01446,0.86527,0.66035,0.38423,0.00631,0.37731
0.0228,0.00968,0.00016,0.00977,0.78449,0.01264,0.7923,0.8466,0.56227,0.00906,0.56787
0.02782,0.00895,0.00014,0.0088,0.72545,0.01167,0.71351,1.03286,0.7739,0.01245,0.76116
0.03284,0.00777,0.00014,0.00782,0.63031,0.01157,0.63362,1.2191,0.93677,0.0172,0.94169
0.03786,0.00688,0.00013,0.00686,0.55782,0.0109,0.55634,1.40535,1.1017,0.02153,1.09877
0.04287,0.00603,0.00013,0.00598,0.48855,0.01034,0.48513,1.5916,1.23758,0.0262,1.22891
0.04789,0.00523,0.00012,0.0052,0.4239,0.01003,0.42186,1.77784,1.33983,0.0317,1.33336
0.05291,0.00441,0.00012,0.00452,0.35756,0.00935,0.3667,1.96408,1.37931,0.03609,1.41458
0.05792,0.0039,0.00011,0.00394,0.31624,0.00923,0.31967,2.15031,1.46223,0.0427,1.47809
0.06294,0.00356,0.00011,0.00345,0.28898,0.00872,0.28004,2.33655,1.57766,0.04758,1.52884
0.06796,0.00291,0.00011,0.00304,0.23599,0.00853,0.24676,2.52278,1.50192,0.05427,1.57047
0.07297,0.00272,0.0001,0.0027,0.22074,0.00826,0.21883,2.709,1.61998,0.06061,1.60589
0.07799,0.00233,0.0001,0.00241,0.18926,0.00794,0.19535,2.89523,1.58645,0.06658,1.63749
0.083,0.00205,0.0001,0.00216,0.16602,0.00774,0.17547,3.08144,1.5764,0.07352,1.66613
0.08802,0.00204,0.00009,0.00196,0.16551,0.00747,0.15849,3.26765,1.76721,0.07973,1.69233
0.09304,0.00192,0.0001,0.00178,0.15534,0.00793,0.14394,3.45386,1.85303,0.09459,1.71709
0.09805,0.00185,0.0001,0.00162,0.14998,0.00805,0.13136,3.64006,1.98724,0.10666,1.74048
0.10307,0.0016,0.00009,0.00149,0.12956,0.00751,0.12041,3.82626,1.89686,0.10997,1.76291
0.10808,0.00136,0.00009,0.00137,0.11005,0.00738,0.11086,4.01245,1.77182,0.11888,1.78483
0.1131,0.00126,0.00009,0.00126,0.10238,0.00703,0.10246,4.19864,1.80476,0.124,1.8062
0.11811,0.00126,0.00008,0.00117,0.10196,0.00679,0.09505,4.38482,1.96027,0.13051,1.82746
0.12313,0.00116,0.00008,0.00109,0.09438,0.00656,0.08848,4.57099,1.97202,0.13712,1.84878
0.12814,0.00118,0.00008,0.00102,0.09571,0.00662,0.08264,4.75715,2.16607,0.14988,1.8702
0.13316,0.0009,0.00008,0.00095,0.07334,0.00684,0.07742,4.94331,1.79214,0.16712,1.89184
0.13817,0.00104,0.00008,0.0009,0.08408,0.00681,0.07272,5.12946,2.21224,0.17907,1.91348
0.14319,0.00096,0.00008,0.00084,0.078,0.00668,0.06848,5.3156,2.20392,0.18885,1.93503
0.1482,0.00068,0.00008,0.0008,0.0552,0.00675,0.06463,5.50174,1.67092,0.20437,1.95641
0.15321,0.00081,0.00008,0.00075,0.06528,0.00662,0.06112,5.68786,2.11184,0.21429,1.97734
0.15823,0.00067,0.00008,0.00071,0.05435,0.0066,0.0579,5.87398,1.87529,0.22778,1.99775
0.16324,0.00076,0.00008,0.00068,0.06198,0.00647,0.05493,6.06008,2.27624,0.23745,2.01746
0.16825,0.00066,0.00008,0.00064,0.0537,0.00637,0.05219,6.24618,2.09492,0.24838,2.03638
0.17327,0.00066,0.00008,0.00061,0.05371,0.00639,0.04966,6.43227,2.2223,0.26437,2.05468
0.17828,0.00057,0.00008,0.00058,0.04589,0.00628,0.04731,6.61835,2.01005,0.27508,2.07251
0.18329,0.00062,0.00008,0.00056,0.05049,0.00625,0.04514,6.80442,2.33787,0.28931,2.08999
0.1883,0.0007,0.00008,0.00053,0.0569,0.00616,0.04312,6.99048,2.78072,0.30104,2.10717
0.19331,0.0006,0.00008,0.00051,0.04838,0.00616,0.04124,7.17653,2.49155,0.31724,2.12406
0.19833,0.00035,0.00008,0.00049,0.02821,0.00609,0.03949,7.36256,1.529,0.33021,2.1407
0.20334,0.00053,0.00007,0.00047,0.04297,0.00603,0.03786,7.54859,2.44823,0.34371,2.1571
0.20835,0.00052,0.00007,0.00045,0.04252,0.006,0.03633,7.7346,2.54367,0.35912,2.17327
0.21336,0.00037,0.00007,0.00043,0.0296,0.00589,0.0349,7.9206,1.8567,0.36978,2.18921
0.21837,0.00054,0.00008,0.00041,0.04406,0.00639,0.03355,8.10659,2.89568,0.41977,2.2049
0.22338,0.0006,0.00008,0.0004,0.0488,0.00668,0.03229,8.29257,3.35564,0.45908,2.22034
0.22839,0.00044,0.00008,0.00038,0.03555,0.00628,0.0311,8.47854,2.55584,0.45135,2.23555
0.2334,0.0005,0.00007,0.00037,0.04071,0.00607,0.02998,8.66449,3.05604,0.45542,2.25048
0.2384,0.0004,0.00007,0.00036,0.03242,0.00597,0.02892,8.85043,2.53976,0.46801,2.26511
0.24341,0.00025,0.00007,0.00034,0.02049,0.0059,0.02791,9.03635,1.67316,0.48173,2.27938
0.24842,0.00043,0.00007,0.00033,0.03465,0.00583,0.02696,9.22226,2.9473,0.49562,2.29324
0.25343,0.00042,0.00007,0.00032,0.03414,0.00573,0.02606,9.40816,3.02165,0.50708,2.3067
0.25843,0.00036,0.00007,0.00031,0.02943,0.00562,0.0252,9.59405,2.70871,0.51734,2.31978
0.26344,0.00037,0.00007,0.0003,0.02966,0.00555,0.02439,9.77991,2.83654,0.53042,2.3325
0.26845,0.00027,0.00007,0.00029,0.0217,0.00553,0.02361,9.96577,2.15489,0.54908,2.34485
0.27345,0.00045,0.00007,0.00028,0.03643,0.00551,0.02287,10.15161,3.75463,0.56779,2.35683
0.27846,0.00019,0.00007,0.00027,0.01513,0.00541,0.02216,10.33743,1.61635,0.57791,2.36849
0.28346,0.00022,0.00007,0.00027,0.01793,0.00543,0.02149,10.52324,1.98548,0.60142,2.37991
0.28847,0.00027,0.00007,0.00026,0.02222,0.00534,0.02085,10.70903,2.54822,0.61271,2.39117
0.29347,0.00034,0.00007,0.00025,0.02724,0.00531,0.02024,10.8948,3.23295,0.63056,2.40224
0.29848,0.00037,0.00007,0.00024,0.03026,0.0053,0.01965,11.08056,3.71492,0.65126,2.41308
0.30348,0.00031,0.00006,0.00024,0.0253,0.00524,0.01909,11.2663,3.21121,0.66514,2.42364
0.30848,0.00037,0.00006,0.00023,0.03011,0.0052,0.01856,11.45202,3.94833,0.68194,2.43389
0.31349,0.0003,0.00006,0.00022,0.02404,0.00518,0.01804,11.63773,3.25538,0.70177,2.44378
0.31849,0.00035,0.00006,0.00022,0.02873,0.00516,0.01755,11.82342,4.01657,0.72148,2.45332
0.32349,0.00028,0.00006,0.00021,0.02255,0.00509,0.01707,12.00909,3.25195,0.73473,2.4625
0.32849,0.00023,0.00006,0.0002,0.01866,0.00511,0.01662,12.19474,2.77514,0.75997,2.4714
0.33349,0.00034,0.00006,0.0002,0.02741,0.00505,0.01618,12.38038,4.20185,0.7742,2.48039
0.33849,0.00013,0.00006,0.00019,0.01056,0.005,0.01577,12.56599,1.66775,0.78966,2.48992
0.34349,0.00021,0.00007,0.00019,0.01666,0.00533,0.01538,12.75159,2.70826,0.86663,2.50038
0.34849,0.00021,0.00007,0.00019,0.01664,0.00606,0.01501,12.93717,2.78433,1.01422,2.51205
0.35349,0.00038,0.00007,0.00018,0.03052,0.00585,0.01466,13.12272,5.25534,1.00668,2.5252
0.35848,0.00028,0.00007,0.00018,0.02241,0.00566,0.01434,13.30826,3.96856,1.00314,2.54015
0.36348,0.00019,0.00007,0.00017,0.01534,0.00572,0.01404,13.49378,2.79355,1.04119,2.55729
0.36848,0.00021,0.00007,0.00017,0.01711,0.00562,0.01377,13.67927,3.20089,1.05231,2.57702
0.37347,0.00024,0.00007,0.00017,0.01948,0.00566,0.01353,13.86475,3.7448,1.08779,2.59994
0.37847,0.00016,0.00007,0.00016,0.01261,0.00564,0.01331,14.0502,2.48909,1.11276,2.6267
0.38346,0.00033,0.00007,0.00016,0.02646,0.00565,0.01312,14.23563,5.3631,1.14596,2.65801
0.38846,0.00024,0.00007,0.00016,0.0192,0.0057,0.01296,14.42104,3.99263,1.18589,2.69457
0.39345,0.00012,0.00007,0.00016,0.00959,0.0057,0.01283,14.60643,2.04502,1.21507,2.73716
0.39845,0.00015,0.00007,0.00016,0.01187,0.00574,0.01274,14.7918,2.59728,1.25653,2.7865
0.40344,0.00019,0.00007,0.00016,0.0155,0.0057,0.01268,14.97715,3.47608,1.27833,2.84331
0.40843,0.00017,0.00007,0.00016,0.01363,0.00574,0.01265,15.16247,3.13457,1.31924,2.90831
0.41342,0.00017,0.00007,0.00016,0.01381,0.00567,0.01266,15.34777,3.25274,1.33545,2.98234
0.41841,0.0001,0.00007,0.00016,0.00835,0.00575,0.01271,15.53304,2.01476,1.38785,3.06625
0.4234,0.00009,0.00007,0.00016,0.00715,0.00573,0.01279,15.71829,1.76531,1.41494,3.16098
0.42839,0.00025,0.00007,0.00016,0.02016,0.00578,0.01292,15.90352,5.09933,1.46065,3.2676
0.43338,0.0002,0.00007,0.00016,0.016,0.00578,0.01309,16.08873,4.1426,1.49596,3.38725
0.43837,0.00026,0.00007,0.00016,0.02116,0.00575,0.0133,16.27391,5.60388,1.52228,3.52114
0.44336,0.00013,0.00007,0.00017,0.01035,0.00583,0.01355,16.45906,2.80415,1.57987,3.67055
0.44834,0.00023,0.00007,0.00017,0.01893,0.00575,0.01385,16.64419,5.24445,1.59335,3.83685
0.45333,0.00017,0.00007,0.00018,0.01371,0.00585,0.0142,16.8293,3.88249,1.65732,4.0215
0.45832,0.00013,0.00007,0.00018,0.01055,0.00581,0.0146,17.01437,3.05293,1.68197,4.22604
0.4633,0.0001,0.00007,0.00019,0.00792,0.00585,0.01505,17.19943,2.3437,1.72934,4.45206
0.46828,0.00004,0.00008,0.00019,0.00335,0.00646,0.01556,17.38445,1.01233,1.95144,4.70106
0.47327,0.00009,0.00009,0.0002,0.0074,0.00716,0.01612,17.56945,2.28554,2.20891,4.97454
0.47825,0.00009,0.0001,0.00021,0.00764,0.00785,0.01673,17.75443,2.40846,2.47463,5.27418
0.48323,0.00009,0.00011,0.00021,0.00727,0.00851,0.01741,17.93938,2.34018,2.73997,5.60172
0.48821,0.00009,0.00011,0.00022,0.00722,0.00863,0.01814,18.1243,2.37134,2.83339,5.95903
0.49319,0.00002,0.00011,0.00023,0.00146,0.00893,0.01894,18.30919,0.48883,2.99268,6.34796
0.49817,0.00028,0.00011,0.00024,0.02271,0.0093,0.01979,18.49405,7.76798,3.18119,6.77041
0.50315,0.00002,0.00012,0.00026,0.00164,0.00984,0.02072,18.67889,0.57069,3.43239,7.22832
0.50813,0.00015,0.00013,0.00027,0.01219,0.01018,0.02171,18.8637,4.33608,3.62101,7.72362
0.51311,0.00014,0.00013,0.00028,0.01104,0.01055,0.02276,19.04848,4.00488,3.82892,8.2583
0.51809,-0.00002,0.00014,0.00029,-0.00172,0.01128,0.02388,19.23323,-0.6362,4.17264,8.8344
0.52306,0.00007,0.00014,0.00031,0.00561,0.01162,0.02507,19.41795,2.11463,4.37971,9.45405
0.52804,0.00026,0.00015,0.00032,0.02131,0.01237,0.02633,19.60265,8.18905,4.75414,10.11938
0.53301,0.0003,0.00016,0.00034,0.02408,0.01316,0.02767,19.78731,9.42934,5.15341,10.83261
0.53798,0.00026,0.00017,0.00036,0.0212,0.01381,0.02907,19.97194,8.45584,5.50906,11.59607
0.54296,0.00021,0.00019,0.00038,0.01723,0.01514,0.03055,20.15654,6.99954,6.15058,12.41206
0.54793,0.00023,0.0002,0.0004,0.01843,0.01634,0.0321,20.34112,7.62452,6.76037,13.28303
0.5529,0.00026,0.00022,0.00042,0.0211,0.01773,0.03373,20.52566,8.88877,7.47087,14.21142
0.55787,-0.00039,0.00025,0.00044,-0.03179,0.01987,0.03544,20.71017,-13.63714,8.52129,15.1998
0.56284,0.00027,0.00028,0.00046,0.02193,0.02255,0.03722,20.89465,9.57609,9.84706,16.25075
0.56781,0.00038,0.00035,0.00048,0.03053,0.02825,0.03909,21.0791,13.56395,12.5529,17.36696
0.57277,0.00003,0.00047,0.00051,0.00272,0.03809,0.04103,21.26352,1.23006,17.22403,18.55114
0.57774,0.00069,0.00139,0.00053,0.05557,0.11238,0.04306,21.4479,25.56174,51.69571,19.80613
0.57819,0.0019,0.00243,0.00053,0.15409,0.19727,0.04324,21.46466,70.99226,90.89034,19.9238