Folder: supportingdata/2025/starling_2025/figures/experimental_comparison/saxs_scattering/experiment/eif4f_p150

Note: 2025/starling_2025/figures/experimental_comparison/saxs_scattering/experiment/readme.md
# About

This directory contains scattering data and their reanalysis using the (wonderful) MFF of [Riback et al.](https://sosnick.uchicago.edu/SAXSonIDPs/).

This means for every SAXS piece of SAXS data here, we:

1. Verified it was of high quality
2. Re-evaluated it in a CONSISTENT (and in our experience, very robust) way


We feel this sets the highest bar for consistent, high-quality experimental data to compare against. We also hope this is generally useful for the community in the future.

### Files

* `sequences.fasta` - the sequences for all the proteins in this directory (53 proteins)
* `mff_analysis_all.csv` - a CSV file we 53 entries with three columns (name, $R_g$ value, $R_g$ error), as calculated for each scattering data directly using the [Molecular Form Factor](https://sosnick.uchicago.edu/SAXSonIDPs/). The Rg/error values here are summaries; for EACH entry, the full MFF output is in the `mff_out.csv` file in each directory.


### Subdirectories
* Each subdirectory (e.g., `alpha_syn`) contains a set of files:
	* `<filename>.dat` (or something like this), which is the original scattering data. If no `_clean.dat` file (described below) is present, this is the file that will be used for the scattering data.
	* `SASD<ID>.dat` - [optional] - some of the files have the original [SASBDB](https://www.sasbdb.org/) scattering data,
	* `<sequence-name>_clean.dat` - the final, cleaned scattering data in a self-consistent format, which, _if available_ will be the scattering data to use. 
	* `mff_out.csv` - full output from the MFF analysis of the cleaned scattering data.

File: mff_out.csv
#File Plotted Below: eif4f_p150_clean.dat,,,,,,,,,,
,,,,,,,,,,
    #Fit from 0.01-0.15 with polymer MFF,,,,,,,,,,
#Initial search parameter for I0 = 0.0378363,,,,,,,,,,
#Initial search parameter for Rg = 30,,,,,,,,,,
#Initial search parameter for nu = 0.499881,,,,,,,,,,
#BestFit for I0 = 0.04124 +- 0.00024,,,,,,,,,,
#BestFit for I(0)/I0 = 1.00000 +- 0.00584,,,,,,,,,,
#BestFit for Rg = 51.97975 +- 0.19208,,,,,,,,,,
#BestFit for nu = 0.55265 +- 0.00095,,,,,,,,,,
#BestFit reduced chisquared = 0.61121,,,,,,,,,,
#-------------,,,,,,,,,,
#-------------,,,,,,,,,,
,,,,,,,,,,
    #q,I(q),Error,fit,I(q)/I0,Error/I0,fit/I0,qRg,((qRg)^2)I(q)/I0,((qRg)^2)*Error/I0,((qRg)^2)*fit/I0
0.01033,0.0373,0.00734,0.03741,0.90465,0.17788,0.90725,0.53691,0.26079,0.05128,0.26153
0.01695,0.03248,0.00126,0.03202,0.78777,0.03044,0.77658,0.88113,0.61162,0.02364,0.60293
0.02357,0.02504,0.00096,0.02596,0.60727,0.02326,0.62954,1.22536,0.91181,0.03493,0.94525
0.0302,0.02062,0.00075,0.0203,0.5,0.0182,0.49221,1.56958,1.23179,0.04483,1.21261
0.03682,0.01673,0.00067,0.01567,0.40581,0.01621,0.38006,1.91381,1.48633,0.05938,1.39205
0.04344,0.0121,0.00031,0.01215,0.29343,0.00761,0.29463,2.25803,1.49613,0.03881,1.50224
0.05006,0.00966,0.00029,0.00956,0.23433,0.007,0.23178,2.60225,1.58681,0.04737,1.56954
0.05668,0.00765,0.00016,0.00766,0.18563,0.00381,0.18574,2.94647,1.61158,0.03311,1.6125
0.06331,0.00616,0.00014,0.00625,0.14931,0.00339,0.15156,3.2907,1.6168,0.0367,1.64122
0.06993,0.00504,0.00013,0.00519,0.12221,0.00303,0.12575,3.63492,1.61467,0.04009,1.66152
0.07655,0.00446,0.00012,0.00437,0.10811,0.00282,0.10586,3.97914,1.71173,0.04471,1.67618
0.08317,0.00369,0.00012,0.00372,0.08938,0.00283,0.09024,4.32337,1.67057,0.05292,1.68679
0.0898,0.00315,0.0001,0.00321,0.07635,0.00248,0.07778,4.66759,1.66344,0.05399,1.69449
0.09642,0.00284,0.0001,0.00279,0.06885,0.00235,0.06767,5.01182,1.72952,0.05902,1.6998
0.10304,0.00254,0.00009,0.00245,0.06148,0.0022,0.05937,5.35605,1.76362,0.0632,1.70305
0.10966,0.00213,0.00008,0.00216,0.05168,0.00204,0.05246,5.70026,1.67912,0.06632,1.70459
0.11628,0.00201,0.00008,0.00192,0.04873,0.00196,0.04666,6.04447,1.78052,0.07166,1.70471
0.12291,0.00178,0.00008,0.00172,0.04322,0.00185,0.04174,6.38873,1.76395,0.07571,1.70369
0.12953,0.00149,0.00007,0.00155,0.03607,0.00175,0.03754,6.73294,1.63504,0.07924,1.70186
0.13615,0.00143,0.00007,0.0014,0.03466,0.00168,0.03393,7.07715,1.73582,0.08438,1.69958
0.14277,0.00114,0.00007,0.00127,0.02767,0.00172,0.03081,7.42136,1.52411,0.095,1.69713
0.1494,0.00118,0.00007,0.00116,0.02871,0.0016,0.0281,7.76562,1.73162,0.09624,1.6946
0.15602,0.00116,0.00006,0.00106,0.02814,0.00156,0.02573,8.10983,1.8509,0.10227,1.69198
0.16264,0.00101,0.00006,0.00097,0.02442,0.00149,0.02364,8.45404,1.74544,0.10673,1.68927
0.16926,0.00087,0.00006,0.0009,0.02115,0.00142,0.02179,8.79825,1.63712,0.11024,1.68654
0.17589,0.00086,0.00006,0.00083,0.02092,0.00141,0.02015,9.14251,1.74848,0.11768,1.68385
0.18251,0.0008,0.00006,0.00077,0.01946,0.00138,0.01868,9.48672,1.75104,0.12425,1.68121
0.18913,0.00076,0.00006,0.00072,0.01842,0.00135,0.01737,9.83093,1.78067,0.13069,1.67851
0.19575,0.00067,0.00005,0.00067,0.01631,0.0013,0.01619,10.17514,1.68873,0.13494,1.67585
0.20238,0.00073,0.00006,0.00062,0.01762,0.00137,0.01512,10.5194,1.94945,0.15203,1.67323
0.209,0.00068,0.00005,0.00058,0.0166,0.00131,0.01416,10.86361,1.95907,0.15443,1.67062
0.21562,0.0006,0.00005,0.00055,0.01458,0.00127,0.01328,11.20782,1.83127,0.15912,1.66816
0.22224,0.00056,0.00005,0.00051,0.01361,0.00124,0.01248,11.55203,1.81678,0.16566,1.66602
0.22886,0.00062,0.00005,0.00048,0.01513,0.00125,0.01176,11.89629,2.14162,0.17631,1.66425
0.23549,0.00052,0.00005,0.00046,0.01266,0.0012,0.0111,12.2405,1.89687,0.18047,1.66256
0.24211,0.00053,0.00005,0.00043,0.01288,0.00118,0.01049,12.58471,2.04005,0.18729,1.66077
0.24873,0.00046,0.00005,0.00041,0.01116,0.00115,0.00992,12.92892,1.86621,0.19218,1.65839
0.25535,0.00052,0.00005,0.00039,0.01251,0.00118,0.00939,13.27319,2.20445,0.20738,1.6541
0.26198,0.00051,0.00005,0.00037,0.01243,0.00119,0.00888,13.6174,2.30572,0.2199,1.64681
0.2686,0.00053,0.00005,0.00035,0.01292,0.00116,0.00839,13.96161,2.51752,0.22534,1.63539
0.27522,0.00041,0.00005,0.00033,0.00997,0.00111,0.00791,14.30587,2.04144,0.22783,1.61832
0.28184,0.00041,0.00005,0.00031,0.00997,0.00111,0.00743,14.65008,2.13946,0.23757,1.59417
0.28846,0.0004,0.00004,0.00029,0.00968,0.00109,0.00694,14.99429,2.1761,0.24413,1.5614
0.29509,0.00036,0.00004,0.00027,0.00871,0.00107,0.00645,15.3385,2.04823,0.25179,1.5181
0.30171,0.00034,0.00004,0.00025,0.00835,0.00106,0.00594,15.68276,2.05334,0.26122,1.46204
0.30833,0.00034,0.00004,0.00022,0.00835,0.00105,0.00541,16.02697,2.1454,0.26977,1.3908
0.31495,0.0004,0.00005,0.0002,0.0097,0.0011,0.00486,16.37118,2.59976,0.29514,1.30166
0.32157,0.00029,0.00004,0.00018,0.0071,0.00106,0.00426,16.71539,1.98284,0.2969,1.19131
0.3282,0.0003,0.00004,0.00015,0.00731,0.00104,0.00363,17.05965,2.12702,0.30308,1.0565
0.33482,0.0003,0.00004,0.00012,0.00736,0.00103,0.00295,17.40386,2.22899,0.31067,0.89397
0.34144,0.00028,0.00004,0.00009,0.0067,0.00101,0.00222,17.74807,2.10941,0.31842,0.69963
0.34806,0.0003,0.00004,0.00006,0.0072,0.001,0.00143,18.09228,2.35754,0.32895,0.46933
0.35469,0.00031,0.00004,0.00002,0.00762,0.001,0.00058,18.43654,2.59091,0.34004,0.19876
0.36131,0.00027,0.00004,-0.00001,0.00647,0.00099,-0.00033,18.78075,2.2806,0.34999,-0.11659
0.36793,0.00032,0.00004,-0.00005,0.00776,0.001,-0.00132,19.12496,2.83832,0.36693,-0.48158
0.37455,0.00024,0.00004,-0.0001,0.00588,0.00105,-0.00238,19.46917,2.22752,0.39612,-0.90135
0.38118,0.00022,0.00004,-0.00015,0.00539,0.00101,-0.00352,19.81343,2.11526,0.39703,-1.3814
0.3878,0.00022,0.00004,-0.0002,0.00546,0.001,-0.00474,20.15764,2.21687,0.40562,-1.9274
0.39442,0.0002,0.00004,-0.00025,0.00497,0.001,-0.00606,20.50185,2.08945,0.41994,-2.54556
0.40104,0.00024,0.00004,-0.00031,0.00579,0.00101,-0.00746,20.84606,2.51496,0.43881,-3.2424
0.40766,0.00027,0.00004,-0.00037,0.00644,0.00102,-0.00896,21.19033,2.89128,0.4566,-4.02494
0.41429,0.0002,0.00004,-0.00044,0.00481,0.001,-0.01057,21.53454,2.23035,0.46563,-4.90023
0.42091,0.00026,0.00004,-0.00051,0.00635,0.00102,-0.01228,21.87875,3.03837,0.48895,-5.87605
0.42753,0.00019,0.00004,-0.00058,0.00454,0.001,-0.01409,22.22296,2.24296,0.49627,-6.96049
0.43415,0.00015,0.00005,-0.00066,0.00354,0.00109,-0.01603,22.56722,1.80262,0.55589,-8.16223
0.44078,0.00016,0.00004,-0.00075,0.00385,0.00105,-0.01808,22.91143,2.01841,0.5493,-9.48985
0.4474,0.00019,0.00004,-0.00084,0.00463,0.00104,-0.02025,23.25564,2.50278,0.5605,-10.95288
0.45402,0.00021,0.00004,-0.00093,0.00515,0.00104,-0.02255,23.59985,2.87041,0.57899,-12.56115
0.46064,0.00016,0.00004,-0.00103,0.00396,0.00103,-0.02499,23.94411,2.269,0.58951,-14.32519
0.46727,0.00017,0.00004,-0.00114,0.00409,0.00103,-0.02755,24.28832,2.41279,0.60815,-16.25522
0.47389,0.00021,0.00004,-0.00125,0.00512,0.00104,-0.03026,24.63253,3.10404,0.6294,-18.36272
0.48051,0.00018,0.00004,-0.00137,0.00436,0.00103,-0.03312,24.97674,2.72055,0.64475,-20.65939
0.48713,0.0002,0.00004,-0.00149,0.00496,0.00103,-0.03612,25.321,3.18252,0.66301,-23.15783
0.49375,0.00023,0.00005,-0.00162,0.00548,0.00115,-0.03927,25.66521,3.60965,0.75588,-25.87002
0.50038,0.00021,0.00004,-0.00176,0.00507,0.00108,-0.04259,26.00942,3.42654,0.72863,-28.80955
0.507,0.00015,0.00004,-0.0019,0.00369,0.00106,-0.04606,26.35368,2.56068,0.73695,-31.99069
0.51362,0.00012,0.00004,-0.00205,0.00296,0.00105,-0.0497,26.69789,2.10839,0.74886,-35.42678
0.52024,0.00016,0.00004,-0.00221,0.00393,0.00106,-0.05351,27.0421,2.8747,0.774,-39.13316
0.52687,0.00011,0.00004,-0.00237,0.00268,0.00104,-0.0575,27.38631,2.01299,0.78136,-43.12524
0.53349,0.00017,0.00004,-0.00254,0.00413,0.00106,-0.06167,27.73057,3.1787,0.81504,-47.41968
0.54011,0.00019,0.00004,-0.00272,0.00463,0.00106,-0.06601,28.07478,3.6486,0.83358,-52.03177
0.54673,0.00016,0.00004,-0.00291,0.00395,0.00105,-0.07055,28.41899,3.19411,0.84639,-56.97929
0.55335,0.00014,0.00005,-0.0031,0.00337,0.00113,-0.07528,28.7632,2.78567,0.93324,-62.28001
0.55998,0.00011,0.00004,-0.00331,0.00272,0.00109,-0.0802,29.10747,2.30116,0.92449,-67.95321
0.5666,0.00015,0.00004,-0.00352,0.00372,0.00108,-0.08533,29.45168,3.22794,0.94016,-74.01616
0.57322,0.00021,0.00005,-0.00374,0.00504,0.00109,-0.09066,29.79589,4.47067,0.97159,-80.48934
0.57984,0.00019,0.00004,-0.00397,0.00465,0.00109,-0.0962,30.1401,4.22728,0.99099,-87.39302
0.58647,0.00022,0.00004,-0.0042,0.00522,0.00109,-0.10196,30.48436,4.85405,1.0089,-94.74927
0.59309,0.00011,0.00004,-0.00445,0.00267,0.00107,-0.10793,30.82857,2.54167,1.01447,-102.577
0.59971,0.00014,0.00004,-0.00471,0.00333,0.00107,-0.11413,31.17278,3.23622,1.04224,-110.901
0.60633,0.00007,0.00005,-0.00497,0.00167,0.00109,-0.12055,31.51699,1.66063,1.08693,-119.743
0.61296,0.00015,0.00005,-0.00525,0.00356,0.00114,-0.1272,31.86125,3.60931,1.15737,-129.128
0.61958,0.00008,0.00005,-0.00553,0.00204,0.00111,-0.13409,32.20546,2.11838,1.15346,-139.078
0.6262,0.00009,0.00005,-0.00582,0.00225,0.00111,-0.14122,32.54967,2.38445,1.17325,-149.619
0.63282,0.0002,0.00005,-0.00613,0.00484,0.00112,-0.14859,32.89388,5.24121,1.21712,-160.778
0.63944,0.00011,0.00005,-0.00644,0.00267,0.0011,-0.15621,33.23814,2.9445,1.21688,-172.582
0.64607,0.00009,0.00005,-0.00677,0.00215,0.0011,-0.16409,33.58235,2.42531,1.2374,-185.055
0.65269,0.00006,0.00005,-0.0071,0.00139,0.0011,-0.17222,33.92656,1.6056,1.2616,-198.227
0.65931,0.00012,0.00005,-0.00745,0.00294,0.0011,-0.18061,34.27077,3.44953,1.29697,-212.127
0.66593,0.00012,0.00005,-0.0078,0.0029,0.00118,-0.18927,34.61503,3.46939,1.41721,-226.786
0.67256,0.0001,0.00005,-0.00817,0.0025,0.00133,-0.1982,34.95924,3.05613,1.62385,-242.232
0.67918,0.00005,0.00006,-0.00855,0.00127,0.00145,-0.2074,35.30345,1.57749,1.80387,-258.495
0.6858,0.00013,0.00007,-0.00894,0.00326,0.00161,-0.21689,35.64766,4.14577,2.05048,-275.61
0.69242,0.00012,0.00007,-0.00935,0.0028,0.0018,-0.22665,35.99192,3.63108,2.337,-293.611
0.69904,0.00007,0.00008,-0.00976,0.00163,0.00206,-0.23671,36.33613,2.14607,2.71977,-312.527
0.70567,0.00019,0.0001,-0.01019,0.0046,0.00247,-0.24705,36.68034,6.1861,3.32342,-332.394
0.71229,0.00023,0.00013,-0.01063,0.00553,0.00321,-0.25769,37.02455,7.57637,4.39921,-353.249
0.71891,0.00014,0.00016,-0.01108,0.00332,0.00394,-0.26864,37.36882,4.6339,5.50849,-375.13
0.72553,-0.00002,0.00026,-0.01154,-0.00053,0.00619,-0.27988,37.71303,-0.75126,8.80267,-398.068
0.72884,0.00001,0.00063,-0.01178,0.00035,0.01535,-0.28562,37.88513,0.49587,22.02731,-409.946