Folder: supportingdata/2025/starling_2025/figures/experimental_comparison/saxs_scattering/experiment/fhua

Note: 2025/starling_2025/figures/experimental_comparison/saxs_scattering/experiment/fhua/original_filename.txt
FhuA_150mM_KCl.dat

Note: 2025/starling_2025/figures/experimental_comparison/saxs_scattering/experiment/fhua/readme.md
trimmed first 3 data points off

File: mff_out.csv
#File Plotted Below: fhua.dat,,,,,,,,,,
,,,,,,,,,,
    #Fit from 0.01-0.15 with polymer MFF,,,,,,,,,,
#Initial search parameter for I0 = 157.442,,,,,,,,,,
#Initial search parameter for Rg = 30,,,,,,,,,,
#Initial search parameter for nu = 0.499881,,,,,,,,,,
#BestFit for I0 = 171.279 +- 1.25367,,,,,,,,,,
#BestFit for I(0)/I0 = 1.00000 +- 0.00732,,,,,,,,,,
#BestFit for Rg = 33.36546 +- 0.23758,,,,,,,,,,
#BestFit for nu = 0.54256 +- 0.00935,,,,,,,,,,
#BestFit reduced chisquared = 0.99369,,,,,,,,,,
#-------------,,,,,,,,,,
#-------------,,,,,,,,,,
,,,,,,,,,,
    #q,I(q),Error,fit,I(q)/I0,Error/I0,fit/I0,qRg,((qRg)^2)I(q)/I0,((qRg)^2)*Error/I0,((qRg)^2)*fit/I0
0.00455,306.473,154.602,170.136,1.78932,0.90263,0.99333,0.15178,0.04122,0.02079,0.02288
0.00813,153.466,41.42677,167.17,0.896,0.24187,0.97601,0.27135,0.06597,0.01781,0.07186
0.01172,162.871,17.60562,162.647,0.95091,0.10279,0.94961,0.39092,0.14531,0.01571,0.14511
0.0153,168.234,10.18434,156.809,0.98222,0.05946,0.91552,0.51048,0.25596,0.01549,0.23858
0.01888,151.555,7.62675,149.897,0.88485,0.04453,0.87516,0.63005,0.35125,0.01768,0.34741
0.02247,154.312,6.92463,142.154,0.90094,0.04043,0.82995,0.74962,0.50626,0.02272,0.46637
0.02605,127.072,5.64262,133.822,0.7419,0.03294,0.78131,0.86918,0.56049,0.02489,0.59026
0.02963,124.801,4.93368,125.143,0.72864,0.0288,0.73064,0.98875,0.71234,0.02816,0.71429
0.03322,111.512,4.44765,116.349,0.65106,0.02597,0.67929,1.10831,0.79973,0.0319,0.83442
0.0368,111.584,4.19977,107.611,0.65147,0.02452,0.62828,1.22788,0.98222,0.03697,0.94725
0.04038,93.52355,3.99878,99.08109,0.54603,0.02335,0.57848,1.34745,0.99138,0.04239,1.05029
0.04397,79.12818,4.17973,90.91173,0.46198,0.0244,0.53078,1.46701,0.99425,0.05252,1.14231
0.04755,79.85327,4.1748,83.24483,0.46622,0.02437,0.48602,1.58658,1.17358,0.06136,1.22343
0.05114,79.20073,4.10294,76.13288,0.46241,0.02395,0.4445,1.70615,1.34604,0.06973,1.2939
0.05472,68.08673,4.01203,69.57644,0.39752,0.02342,0.40622,1.82571,1.32503,0.07808,1.35402
0.0583,67.45555,3.92895,63.57624,0.39383,0.02294,0.37119,1.94528,1.49031,0.0868,1.40461
0.06189,54.93918,3.85654,58.13133,0.32076,0.02252,0.3394,2.06484,1.36758,0.096,1.44704
0.06547,57.75391,3.79864,53.21899,0.33719,0.02218,0.31072,2.18441,1.60897,0.10583,1.48263
0.06905,46.20036,3.71277,48.7969,0.26974,0.02168,0.2849,2.30398,1.43185,0.11507,1.51232
0.07264,48.04536,3.66375,44.82144,0.28051,0.02139,0.26169,2.42355,1.64759,0.12564,1.53704
0.07622,44.086,3.59457,41.24958,0.25739,0.02099,0.24083,2.54311,1.66467,0.13573,1.55757
0.0798,35.61055,3.54924,38.04077,0.20791,0.02072,0.2221,2.66268,1.47405,0.14692,1.57464
0.08339,29.84955,3.93584,35.15879,0.17427,0.02298,0.20527,2.78225,1.34904,0.17788,1.58899
0.08697,41.51145,3.74735,32.56798,0.24236,0.02188,0.19015,2.90181,2.04081,0.18423,1.60112
0.09055,29.11482,3.49666,30.23238,0.16998,0.02041,0.17651,3.02138,1.55175,0.18636,1.61131
0.09414,23.77036,3.43507,28.12016,0.13878,0.02006,0.16418,3.14094,1.36915,0.19786,1.6197
0.09772,26.13909,3.35152,26.20863,0.15261,0.01957,0.15302,3.26051,1.6224,0.20802,1.62671
0.10131,26.62536,3.30187,24.47635,0.15545,0.01928,0.1429,3.38009,1.77602,0.22025,1.63267
0.10489,23.323,3.26491,22.90266,0.13617,0.01906,0.13372,3.49964,1.66773,0.23346,1.63768
0.10847,23.00591,3.20592,21.46693,0.13432,0.01872,0.12533,3.61922,1.7594,0.24518,1.64171
0.11206,24.00073,3.15568,20.15618,0.14013,0.01842,0.11768,3.73877,1.95874,0.25754,1.64498
0.11564,23.11509,3.10995,18.95741,0.13496,0.01816,0.11068,3.85835,2.00907,0.2703,1.6477
0.11922,18.337,3.06259,17.85906,0.10706,0.01788,0.10427,3.9779,1.69407,0.28294,1.64992
0.12281,20.429,3.02865,16.84871,0.11927,0.01768,0.09837,4.09748,2.00252,0.29688,1.65157
0.12639,18.29918,2.97801,15.91831,0.10684,0.01739,0.09294,4.21703,1.89994,0.3092,1.65275
0.12997,16.22773,3.07546,15.06018,0.09474,0.01796,0.08793,4.33661,1.78178,0.33768,1.65359
0.13356,12.75227,2.98153,14.2674,0.07445,0.01741,0.0833,4.45619,1.47847,0.34567,1.65413
0.13714,13.94545,2.91421,13.5331,0.08142,0.01701,0.07901,4.57574,1.70471,0.35624,1.65431
0.14072,13.89709,2.8644,12.85139,0.08114,0.01672,0.07503,4.69532,1.78875,0.36869,1.65416
0.14431,14.20845,2.83976,12.21831,0.08296,0.01658,0.07134,4.81487,1.92314,0.38437,1.65377
0.14789,7.42909,3.10517,11.62919,0.04337,0.01813,0.0679,4.93445,1.05611,0.44143,1.65319
0.15147,5.46618,2.87132,11.08007,0.03191,0.01676,0.06469,5.054,0.81517,0.4282,1.65238
0.15506,14.60936,2.81985,10.56705,0.0853,0.01646,0.0617,5.17358,2.28302,0.44066,1.65133
0.15864,12.37421,2.78407,10.08765,0.07225,0.01625,0.0589,5.29313,2.02413,0.45541,1.6501
0.16223,6.26373,2.7379,9.63887,0.03657,0.01599,0.05628,5.41271,1.07142,0.46832,1.64874
0.16581,11.65036,2.71385,9.21825,0.06802,0.01584,0.05382,5.53226,2.08181,0.48494,1.64721
0.16939,9.29068,2.68746,8.82313,0.05424,0.01569,0.05151,5.65184,1.7327,0.50121,1.6455
0.17297,8.55118,2.65133,8.45195,0.04993,0.01548,0.04935,5.77139,1.66297,0.51561,1.64367
0.17656,1.80073,2.62313,8.10278,0.01051,0.01531,0.04731,5.89097,0.36485,0.53148,1.64174
0.18014,9.87171,2.60319,7.77397,0.05764,0.0152,0.04539,6.01055,2.08218,0.54907,1.63971
0.18373,4.82679,2.55827,7.46402,0.02818,0.01494,0.04358,6.1301,1.05899,0.56128,1.63759
0.18731,9.89923,2.54833,7.17146,0.0578,0.01488,0.04187,6.24968,2.25743,0.58112,1.63538
0.19089,7.62102,2.52835,6.89527,0.04449,0.01476,0.04026,6.36923,1.80503,0.59883,1.63313
0.19448,6.99879,2.49388,6.63409,0.04086,0.01456,0.03873,6.48881,1.72048,0.61306,1.63083
0.19806,9.9603,2.49001,6.38692,0.05815,0.01454,0.03729,6.60836,2.53955,0.63487,1.62845
0.20164,3.7592,2.46809,6.15274,0.02195,0.01441,0.03592,6.72794,0.99347,0.65226,1.62603
0.20523,8.02455,2.43071,5.93089,0.04685,0.01419,0.03463,6.84749,2.19675,0.66542,1.6236
0.20881,7.83114,2.5611,5.72045,0.04572,0.01495,0.0334,6.96707,2.21933,0.72581,1.62117
0.21239,5.6177,2.63861,5.52076,0.0328,0.01541,0.03223,7.08662,1.64715,0.77366,1.61873
0.21598,6.76319,2.47109,5.33104,0.03949,0.01443,0.03112,7.2062,2.05051,0.7492,1.6163
0.21956,6.82221,2.41458,5.15079,0.03983,0.0141,0.03007,7.32575,2.1376,0.75656,1.61389
0.22315,3.0288,2.39306,4.97931,0.01768,0.01397,0.02907,7.44533,0.98025,0.77449,1.61151
0.22673,5.72324,2.36755,4.81604,0.03341,0.01382,0.02812,7.56492,1.91226,0.79105,1.60914
0.23031,7.2179,2.34521,4.66051,0.04214,0.01369,0.02721,7.68446,2.48848,0.80855,1.60678
0.2339,5.96802,2.32723,4.5122,0.03484,0.01359,0.02634,7.80405,2.1221,0.82751,1.60444
0.23748,4.24934,2.30426,4.37075,0.02481,0.01345,0.02552,7.9236,1.55762,0.84464,1.60213
0.24106,7.4573,2.27732,4.23566,0.04354,0.0133,0.02473,8.04318,2.81665,0.86015,1.59982
0.24465,-0.08721,2.25567,4.1066,-0.00051,0.01317,0.02398,8.16273,-0.03393,0.87749,1.59753
0.24823,-0.26486,2.23901,3.98318,-0.00155,0.01307,0.02326,8.28231,-0.10608,0.89672,1.59525
0.25181,3.31729,2.22221,3.86518,0.01937,0.01297,0.02257,8.40186,1.36719,0.91587,1.593
0.2554,0.21671,2.21793,3.7522,0.00127,0.01295,0.02191,8.52144,0.09188,0.94031,1.59077
0.25898,5.95505,2.17622,3.64403,0.03477,0.01271,0.02128,8.64099,2.59602,0.94869,1.58856
0.26256,1.40838,2.16381,3.54036,0.00822,0.01263,0.02067,8.76057,0.63108,0.96957,1.58638
0.26615,2.45067,2.15619,3.44099,0.01431,0.01259,0.02009,8.88015,1.12829,0.99271,1.58424
0.26973,6.7407,2.12699,3.34574,0.03936,0.01242,0.01953,8.9997,3.18755,1.00581,1.58214
0.27331,5.09977,2.25558,3.25431,0.02977,0.01317,0.019,9.11928,2.4761,1.09516,1.58007
0.2769,2.1037,2.55568,3.16656,0.01228,0.01492,0.01849,9.23883,1.04837,1.27361,1.57804
0.28048,3.67863,2.68174,3.08225,0.02148,0.01566,0.018,9.35841,1.88099,1.37125,1.57604
0.28407,5.93444,2.7929,3.00122,0.03465,0.01631,0.01752,9.47796,3.11247,1.46481,1.57407
0.28765,3.54498,2.86775,2.92326,0.0207,0.01674,0.01707,9.59754,1.90647,1.54226,1.57211
0.29123,1.24144,2.95736,2.84824,0.00725,0.01727,0.01663,9.71709,0.68437,1.63032,1.57017
0.29482,-1.73758,3.09555,2.77601,-0.01014,0.01807,0.01621,9.83667,-0.98161,1.74876,1.56825
0.2984,0.19008,3.20283,2.70649,0.00111,0.0187,0.0158,9.95622,0.11001,1.85361,1.56636
0.30198,6.38284,3.2418,2.6395,0.03727,0.01893,0.01541,10.0758,3.78328,1.9215,1.5645
0.30557,7.61281,3.33721,2.57496,0.04445,0.01948,0.01503,10.19535,4.62004,2.02527,1.56268
0.30915,3.08436,3.48052,2.51272,0.01801,0.02032,0.01467,10.31493,1.916,2.16209,1.56089
0.31273,-5.11041,3.51628,2.45268,-0.02984,0.02053,0.01432,10.43451,-3.2486,2.23524,1.55912
0.31632,2.84566,3.65647,2.39473,0.01661,0.02135,0.01398,10.55406,1.85063,2.37792,1.55737
0.3199,-2.11081,3.83131,2.33874,-0.01232,0.02237,0.01365,10.67364,-1.40401,2.5484,1.55562
0.32348,5.23638,3.96813,2.28468,0.03057,0.02317,0.01334,10.79319,3.56145,2.69887,1.5539
0.32707,4.99196,4.08753,2.23244,0.02915,0.02386,0.01303,10.91277,3.47087,2.84202,1.5522
0.33065,-1.37896,4.26285,2.18199,-0.00805,0.02489,0.01274,11.03232,-0.9799,3.02921,1.55054
0.33424,13.70785,4.42545,2.13321,0.08003,0.02584,0.01245,11.1519,9.95322,3.21331,1.54892
0.33782,1.85196,4.62304,2.0861,0.01081,0.02699,0.01218,11.27145,1.37369,3.42913,1.54736
0.3414,6.20745,4.84684,2.04055,0.03624,0.0283,0.01191,11.39103,4.70258,3.67182,1.54586
0.34498,-0.79464,5.01663,1.99653,-0.00464,0.02929,0.01166,11.51058,-0.61469,3.88063,1.54443
0.34857,4.27573,5.11517,1.95397,0.02496,0.02986,0.01141,11.63016,3.37659,4.0395,1.54307
0.35215,3.39201,5.46412,1.91281,0.0198,0.0319,0.01117,11.74971,2.73406,4.40424,1.54178
0.35574,-15.78905,5.81951,1.87296,-0.09218,0.03398,0.01094,11.86929,-12.98679,4.78666,1.54054
0.35932,11.06728,6.18515,1.83435,0.06462,0.03611,0.01071,11.98888,9.2874,5.19043,1.53934
0.3629,2.17391,6.67024,1.79691,0.01269,0.03894,0.01049,12.10842,1.86086,5.7097,1.53815
0.36649,0.09518,7.24739,1.76058,0.00056,0.04231,0.01028,12.22801,0.08309,6.32687,1.53696
0.37007,-6.00425,8.22697,1.72532,-0.03506,0.04803,0.01007,12.34755,-5.34462,7.32315,1.53578
0.37365,1.68755,9.19066,1.69108,0.00985,0.05366,0.00987,12.46714,1.5314,8.3402,1.53459
0.37724,13.03038,11.06869,1.6578,0.07608,0.06462,0.00968,12.58668,12.05247,10.238,1.53339
0.38082,18.72812,15.37613,1.62541,0.10934,0.08977,0.00949,12.70627,17.65331,14.4937,1.53212
0.38351,64.52036,20.83202,1.60165,0.3767,0.12163,0.00935,12.79592,61.67881,19.91456,1.53111