Folder: supportingdata/2025/starling_2025/figures/experimental_comparison/saxs_scattering/experiment/gon7

Note: 2025/starling_2025/figures/experimental_comparison/saxs_scattering/experiment/readme.md
# About

This directory contains scattering data and their reanalysis using the (wonderful) MFF of [Riback et al.](https://sosnick.uchicago.edu/SAXSonIDPs/).

This means for every SAXS piece of SAXS data here, we:

1. Verified it was of high quality
2. Re-evaluated it in a CONSISTENT (and in our experience, very robust) way


We feel this sets the highest bar for consistent, high-quality experimental data to compare against. We also hope this is generally useful for the community in the future.

### Files

* `sequences.fasta` - the sequences for all the proteins in this directory (53 proteins)
* `mff_analysis_all.csv` - a CSV file we 53 entries with three columns (name, $R_g$ value, $R_g$ error), as calculated for each scattering data directly using the [Molecular Form Factor](https://sosnick.uchicago.edu/SAXSonIDPs/). The Rg/error values here are summaries; for EACH entry, the full MFF output is in the `mff_out.csv` file in each directory.


### Subdirectories
* Each subdirectory (e.g., `alpha_syn`) contains a set of files:
	* `<filename>.dat` (or something like this), which is the original scattering data. If no `_clean.dat` file (described below) is present, this is the file that will be used for the scattering data.
	* `SASD<ID>.dat` - [optional] - some of the files have the original [SASBDB](https://www.sasbdb.org/) scattering data,
	* `<sequence-name>_clean.dat` - the final, cleaned scattering data in a self-consistent format, which, _if available_ will be the scattering data to use. 
	* `mff_out.csv` - full output from the MFF analysis of the cleaned scattering data.

File: mff_out.csv
#File Plotted Below: gon7.dat,,,,,,,,,,
,,,,,,,,,,
    #Fit from 0.01-0.15 with polymer MFF,,,,,,,,,,
#Initial search parameter for I0 = 0.0188026,,,,,,,,,,
#Initial search parameter for Rg = 30,,,,,,,,,,
#Initial search parameter for nu = 0.499881,,,,,,,,,,
#BestFit for I0 = 0.01961 +- 0.00002,,,,,,,,,,
#BestFit for I(0)/I0 = 1.00000 +- 0.00115,,,,,,,,,,
#BestFit for Rg = 30.65317 +- 0.04189,,,,,,,,,,
#BestFit for nu = 0.50695 +- 0.00229,,,,,,,,,,
#BestFit reduced chisquared = 0.87241,,,,,,,,,,
#-------------,,,,,,,,,,
#-------------,,,,,,,,,,
,,,,,,,,,,
    #q,I(q),Error,fit,I(q)/I0,Error/I0,fit/I0,qRg,((qRg)^2)I(q)/I0,((qRg)^2)*Error/I0,((qRg)^2)*fit/I0
0.00958,0.01911,0.00019,0.01905,0.97476,0.00991,0.97146,0.29366,0.08406,0.00086,0.08378
0.01409,0.01863,0.00013,0.0184,0.95011,0.00643,0.93825,0.43185,0.17719,0.0012,0.17498
0.0186,0.01762,0.00011,0.01756,0.89864,0.00546,0.89541,0.57004,0.29201,0.00177,0.29096
0.0231,0.01666,0.0001,0.01657,0.84969,0.00504,0.84517,0.70823,0.4262,0.00253,0.42394
0.02761,0.01542,0.00009,0.01549,0.78622,0.00477,0.78976,0.84643,0.56328,0.00342,0.56581
0.03212,0.01428,0.00009,0.01434,0.728,0.00458,0.73138,0.98461,0.70577,0.00444,0.70905
0.03663,0.01307,0.00009,0.01318,0.66636,0.00445,0.67216,1.1228,0.84007,0.00561,0.84738
0.04114,0.01191,0.00009,0.01203,0.60729,0.00435,0.6136,1.26099,0.96565,0.00692,0.97569
0.04565,0.01089,0.00008,0.01092,0.55535,0.00426,0.55703,1.39917,1.08719,0.00834,1.09049
0.05015,0.00977,0.00008,0.00988,0.49827,0.00419,0.50374,1.53736,1.17765,0.00991,1.19058
0.05466,0.00888,0.00008,0.00891,0.45279,0.00414,0.45461,1.67554,1.27117,0.01163,1.27628
0.05917,0.008,0.00008,0.00803,0.40801,0.00409,0.4097,1.81372,1.34219,0.01346,1.34774
0.06368,0.00726,0.00008,0.00724,0.37031,0.00405,0.36901,1.95189,1.41084,0.01544,1.40589
0.06818,0.00664,0.00008,0.00652,0.33844,0.00402,0.3325,2.09007,1.47846,0.01758,1.45249
0.07269,0.00591,0.00008,0.00588,0.30151,0.00399,0.29995,2.22824,1.49702,0.01982,1.48926
0.0772,0.00538,0.00008,0.00531,0.27422,0.00397,0.271,2.36641,1.53559,0.02222,1.51756
0.08171,0.00486,0.00008,0.00481,0.24779,0.00395,0.24529,2.50458,1.55439,0.02477,1.53867
0.08621,0.00443,0.00008,0.00436,0.22573,0.00393,0.22247,2.64274,1.57649,0.02744,1.55375
0.09072,0.00403,0.00008,0.00397,0.20562,0.00394,0.20224,2.7809,1.59014,0.03043,1.56397
0.09523,0.00368,0.00008,0.00361,0.18766,0.00393,0.18428,2.91906,1.59907,0.03352,1.57023
0.09974,0.00331,0.00008,0.0033,0.1689,0.00393,0.16831,3.05721,1.57861,0.0367,1.57308
0.10424,0.00303,0.00008,0.00302,0.15448,0.00392,0.15406,3.19536,1.57727,0.04001,1.57302
0.10875,0.00276,0.00008,0.00277,0.14086,0.00391,0.14135,3.3335,1.56533,0.04348,1.57077
0.11326,0.00255,0.00008,0.00255,0.12984,0.00391,0.13,3.47165,1.5649,0.04709,1.56678
0.11776,0.00229,0.00008,0.00235,0.11659,0.0039,0.11981,3.60978,1.51917,0.0508,1.5612
0.12227,0.00213,0.00008,0.00217,0.10882,0.00389,0.11066,3.74791,1.5286,0.05469,1.55441
0.12677,0.00198,0.00008,0.00201,0.10116,0.0039,0.10243,3.88604,1.52769,0.05894,1.5468
0.13128,0.00189,0.00008,0.00186,0.09626,0.00391,0.09501,4.02417,1.55887,0.06327,1.53853
0.13579,0.0017,0.00008,0.00173,0.08647,0.00389,0.08829,4.16228,1.498,0.06739,1.52965
0.14029,0.00158,0.00008,0.00161,0.08063,0.00388,0.08221,4.3004,1.49119,0.0718,1.52043
0.1448,0.00152,0.00008,0.0015,0.07777,0.00388,0.0767,4.4385,1.53203,0.07635,1.51105
0.1493,0.00142,0.00008,0.00141,0.07248,0.00387,0.07169,4.57661,1.51814,0.08106,1.50148
0.15381,0.00134,0.00008,0.00132,0.0684,0.00386,0.06711,4.7147,1.52035,0.08591,1.49179
0.15831,0.00128,0.00008,0.00123,0.06518,0.00388,0.06294,4.85279,1.53492,0.09133,1.48215
0.16282,0.00116,0.00008,0.00116,0.05935,0.00388,0.05912,4.99088,1.4784,0.09662,1.4726
0.16732,0.00112,0.00008,0.00109,0.05706,0.00388,0.05562,5.12896,1.50094,0.10217,1.46307
0.17183,0.00105,0.00008,0.00103,0.05344,0.00389,0.0524,5.26703,1.48261,0.10781,1.45366
0.17633,0.00104,0.00008,0.00097,0.05299,0.00389,0.04944,5.40509,1.54797,0.11359,1.44441
0.18083,0.00092,0.00008,0.00092,0.04707,0.00389,0.04671,5.54315,1.44617,0.11944,1.4353
0.18534,0.0009,0.00008,0.00087,0.04612,0.00389,0.04419,5.6812,1.48854,0.12541,1.42629
0.18984,0.00084,0.00008,0.00082,0.04297,0.00388,0.04186,5.81925,1.45498,0.13155,1.41744
0.19434,0.00083,0.00008,0.00078,0.04245,0.00391,0.0397,5.95729,1.50654,0.13889,1.40878
0.19885,0.00086,0.00008,0.00074,0.04382,0.00393,0.03769,6.09532,1.6281,0.14593,1.40026
0.20335,0.00072,0.00008,0.0007,0.0365,0.0039,0.03582,6.23334,1.41829,0.15143,1.39191
0.20785,0.00075,0.00008,0.00067,0.03831,0.00389,0.03409,6.37136,1.55499,0.15797,1.38373
0.21236,0.00065,0.00008,0.00064,0.03332,0.00389,0.03247,6.50936,1.41175,0.16469,1.37572
0.21686,0.00064,0.00008,0.00061,0.03271,0.00388,0.03096,6.64736,1.44525,0.17153,1.36783
0.22136,0.00063,0.00008,0.00058,0.03197,0.00388,0.02954,6.78535,1.47194,0.17856,1.36009
0.22586,0.00059,0.00008,0.00055,0.03005,0.00388,0.02822,6.92334,1.44051,0.18577,1.35252
0.23036,0.00052,0.00008,0.00053,0.02633,0.00387,0.02698,7.06131,1.31271,0.19297,1.34512
0.23486,0.00057,0.00008,0.00051,0.02885,0.00387,0.02581,7.19928,1.49511,0.20043,1.33786
0.23936,0.00056,0.00008,0.00048,0.02841,0.00387,0.02472,7.33723,1.52923,0.20823,1.33079
0.24386,0.00056,0.00008,0.00046,0.02835,0.00387,0.02369,7.47518,1.58422,0.21599,1.32389
0.24836,0.00053,0.00008,0.00045,0.02707,0.00386,0.02273,7.61312,1.56896,0.22378,1.31714
0.25286,0.00045,0.00008,0.00043,0.02315,0.00386,0.02181,7.75105,1.39053,0.23173,1.31056
0.25736,0.00051,0.00008,0.00041,0.02593,0.00386,0.02095,7.88897,1.61352,0.23997,1.30414
0.26186,0.00047,0.00008,0.0004,0.02412,0.00385,0.02014,8.02688,1.55412,0.24829,1.29789
0.26636,0.00043,0.00008,0.00038,0.02172,0.00385,0.01938,8.16478,1.44818,0.25678,1.29179
0.27086,0.00043,0.00008,0.00037,0.02184,0.00385,0.01865,8.30267,1.5057,0.26542,1.28586
0.27536,0.00042,0.00008,0.00035,0.02158,0.00385,0.01797,8.44055,1.53754,0.2742,1.28009
0.27985,0.0004,0.00008,0.00034,0.02017,0.00385,0.01732,8.57841,1.48434,0.28313,1.27447
0.28435,0.0004,0.00008,0.00033,0.02036,0.00385,0.0167,8.71627,1.54692,0.29225,1.26902
0.28885,0.00039,0.00008,0.00032,0.01995,0.00385,0.01612,8.85412,1.56422,0.30145,1.26373
0.29335,0.00037,0.00008,0.00031,0.019,0.00384,0.01557,8.99196,1.53619,0.31081,1.25861
0.29784,0.00034,0.00008,0.00029,0.01714,0.00384,0.01504,9.12978,1.42851,0.32032,1.25367
0.30234,0.00036,0.00008,0.00029,0.01831,0.00384,0.01454,9.2676,1.57242,0.32994,1.24888
0.30683,0.00033,0.00008,0.00028,0.01697,0.00384,0.01407,9.4054,1.50079,0.3397,1.24425
0.31133,0.00037,0.00008,0.00027,0.01898,0.00384,0.01361,9.54319,1.72813,0.34968,1.23975
0.31582,0.00032,0.00008,0.00026,0.01642,0.00384,0.01318,9.68097,1.53861,0.3597,1.23536
0.32032,0.0003,0.00008,0.00025,0.01541,0.00384,0.01277,9.81874,1.48567,0.36987,1.23109
0.32481,0.00029,0.00008,0.00024,0.01485,0.00384,0.01238,9.9565,1.47193,0.38027,1.22697
0.3293,0.00031,0.00008,0.00024,0.01562,0.00383,0.012,10.09424,1.59142,0.39075,1.22298
0.3338,0.0003,0.00008,0.00023,0.0155,0.00384,0.01164,10.23197,1.62257,0.40152,1.21913
0.33829,0.0003,0.00008,0.00022,0.0153,0.00385,0.0113,10.36969,1.64542,0.414,1.21539
0.34278,0.00027,0.00008,0.00022,0.01357,0.00385,0.01098,10.5074,1.4978,0.42554,1.21176
0.34728,0.00028,0.00008,0.00021,0.01431,0.00386,0.01066,10.64509,1.62117,0.43704,1.20819
0.35177,0.00028,0.00008,0.0002,0.01406,0.00386,0.01036,10.78277,1.63521,0.44877,1.20471
0.35626,0.0003,0.00008,0.0002,0.01552,0.00386,0.01007,10.92044,1.85095,0.46054,1.20132
0.36075,0.0003,0.00008,0.00019,0.0151,0.00386,0.0098,11.05809,1.84584,0.47201,1.19802
0.36524,0.00027,0.00008,0.00019,0.01396,0.00386,0.00953,11.19573,1.75013,0.48367,1.19483
0.36973,0.00025,0.00008,0.00018,0.0128,0.00386,0.00928,11.33336,1.64356,0.49552,1.19176
0.37422,0.00027,0.00008,0.00018,0.0138,0.00386,0.00903,11.47097,1.81558,0.50743,1.18883
0.37871,0.00023,0.00008,0.00017,0.01151,0.00385,0.0088,11.60857,1.55128,0.51944,1.18605
0.3832,0.00021,0.00008,0.00017,0.01056,0.00385,0.00858,11.74615,1.45656,0.53175,1.18342
0.38768,0.00023,0.00008,0.00016,0.01176,0.00385,0.00836,11.88372,1.66045,0.54406,1.18093
0.39217,0.00022,0.00008,0.00016,0.01141,0.00385,0.00816,12.02127,1.64831,0.55653,1.17854
0.39666,0.00019,0.00008,0.00016,0.00981,0.00385,0.00796,12.15881,1.45097,0.56926,1.17624
0.40114,0.00023,0.00008,0.00015,0.01197,0.00385,0.00776,12.29634,1.80957,0.58208,1.17404
0.40563,0.00025,0.00008,0.00015,0.01286,0.00385,0.00758,12.43385,1.98763,0.59495,1.17196
0.41012,0.00021,0.00008,0.00015,0.01068,0.00387,0.0074,12.57134,1.68792,0.61093,1.17
0.4146,0.00021,0.00008,0.00014,0.01087,0.00388,0.00723,12.70882,1.75536,0.62721,1.16816
0.41908,0.00022,0.00008,0.00014,0.01135,0.00389,0.00707,12.84628,1.87295,0.64229,1.16641
0.42357,0.00021,0.00008,0.00014,0.0105,0.0039,0.00691,12.98373,1.76948,0.65692,1.16471
0.42805,0.00023,0.00008,0.00013,0.01193,0.0039,0.00676,13.12116,2.05342,0.67157,1.16303
0.43254,0.00025,0.00008,0.00013,0.01271,0.0039,0.00661,13.25858,2.23507,0.68617,1.16136
0.43702,0.00021,0.00008,0.00013,0.01061,0.00391,0.00646,13.39598,1.90465,0.70112,1.15971
0.4415,0.00021,0.00008,0.00012,0.01082,0.00391,0.00632,13.53336,1.98202,0.71618,1.15809
0.44598,0.00018,0.00008,0.00012,0.00907,0.00391,0.00619,13.67073,1.69536,0.7311,1.1565
0.45046,0.00025,0.00008,0.00012,0.01258,0.00392,0.00606,13.80808,2.3981,0.7465,1.15493
0.45494,0.00016,0.00008,0.00012,0.0081,0.00391,0.00593,13.94541,1.57596,0.76118,1.15339
0.45942,0.00019,0.00008,0.00011,0.00971,0.00392,0.00581,14.08273,1.92473,0.77666,1.15186
0.4639,0.00017,0.00008,0.00011,0.00878,0.00392,0.00569,14.22003,1.77576,0.79221,1.15035
0.46838,0.00019,0.00008,0.00011,0.00962,0.00392,0.00557,14.35731,1.98338,0.80816,1.14882
0.47286,0.00018,0.00008,0.00011,0.00938,0.00392,0.00546,14.49457,1.97018,0.82394,1.14725
0.47733,0.00012,0.00008,0.0001,0.00615,0.00393,0.00535,14.63182,1.31665,0.84123,1.14564
0.48181,0.00017,0.00008,0.0001,0.00861,0.00395,0.00524,14.76905,1.87878,0.86185,1.14399
0.48629,0.00024,0.00008,0.0001,0.0123,0.00397,0.00514,14.90626,2.73224,0.88191,1.14229
0.49076,0.00016,0.00008,0.0001,0.00831,0.00399,0.00504,15.04345,1.88155,0.90275,1.14057
0.49524,0.00013,0.00008,0.0001,0.00677,0.00401,0.00494,15.18062,1.56115,0.92443,1.13882
0.49971,0.00019,0.00008,0.0001,0.00956,0.00403,0.00485,15.31778,2.24405,0.94673,1.13701
0.50027,0.0002,0.00008,0.00009,0.01025,0.00404,0.00483,15.33492,2.41066,0.94906,1.13678