Folder: supportingdata/2025/starling_2025/figures/experimental_comparison/saxs_scattering/experiment/hev_pnt3_200_314

Note: 2025/starling_2025/figures/experimental_comparison/saxs_scattering/experiment/readme.md
# About

This directory contains scattering data and their reanalysis using the (wonderful) MFF of [Riback et al.](https://sosnick.uchicago.edu/SAXSonIDPs/).

This means for every SAXS piece of SAXS data here, we:

1. Verified it was of high quality
2. Re-evaluated it in a CONSISTENT (and in our experience, very robust) way


We feel this sets the highest bar for consistent, high-quality experimental data to compare against. We also hope this is generally useful for the community in the future.

### Files

* `sequences.fasta` - the sequences for all the proteins in this directory (53 proteins)
* `mff_analysis_all.csv` - a CSV file we 53 entries with three columns (name, $R_g$ value, $R_g$ error), as calculated for each scattering data directly using the [Molecular Form Factor](https://sosnick.uchicago.edu/SAXSonIDPs/). The Rg/error values here are summaries; for EACH entry, the full MFF output is in the `mff_out.csv` file in each directory.


### Subdirectories
* Each subdirectory (e.g., `alpha_syn`) contains a set of files:
	* `<filename>.dat` (or something like this), which is the original scattering data. If no `_clean.dat` file (described below) is present, this is the file that will be used for the scattering data.
	* `SASD<ID>.dat` - [optional] - some of the files have the original [SASBDB](https://www.sasbdb.org/) scattering data,
	* `<sequence-name>_clean.dat` - the final, cleaned scattering data in a self-consistent format, which, _if available_ will be the scattering data to use. 
	* `mff_out.csv` - full output from the MFF analysis of the cleaned scattering data.

File: mff_out.csv
#File Plotted Below: hev_pnt3_200_314.dat,,,,,,,,,,
,,,,,,,,,,
    #Fit from 0.01-0.15 with polymer MFF,,,,,,,,,,
#Initial search parameter for I0 = 0.02754142,,,,,,,,,,
#Initial search parameter for Rg = 30,,,,,,,,,,
#Initial search parameter for nu = 0.499881,,,,,,,,,,
#BestFit for I0 = 0.02961 +- 0.00007,,,,,,,,,,
#BestFit for I(0)/I0 = 1.00000 +- 0.00233,,,,,,,,,,
#BestFit for Rg = 37.66948 +- 0.07793,,,,,,,,,,
#BestFit for nu = 0.60280 +- 0.00129,,,,,,,,,,
#BestFit reduced chisquared = 2.79840,,,,,,,,,,
#-------------,,,,,,,,,,
#-------------,,,,,,,,,,
,,,,,,,,,,
    #q,I(q),Error,fit,I(q)/I0,Error/I0,fit/I0,qRg,((qRg)^2)I(q)/I0,((qRg)^2)*Error/I0,((qRg)^2)*fit/I0
0.0114,0.02804,0.00027,0.02783,0.94705,0.00927,0.93986,0.42952,0.17472,0.00171,0.17339
0.01596,0.02666,0.0002,0.02624,0.90044,0.00671,0.88634,0.60133,0.32559,0.00243,0.32049
0.02052,0.02469,0.00016,0.02434,0.83395,0.00548,0.82207,0.77313,0.49848,0.00327,0.49138
0.02508,0.02248,0.00014,0.02224,0.75921,0.00481,0.7511,0.94494,0.67791,0.00429,0.67066
0.02965,0.01977,0.00013,0.02006,0.66768,0.0043,0.67743,1.11674,0.83267,0.00536,0.84483
0.03421,0.01774,0.00011,0.01789,0.59924,0.00387,0.60431,1.28854,0.99494,0.00643,1.00337
0.03877,0.01569,0.00011,0.01583,0.53002,0.00358,0.53453,1.46035,1.13033,0.00764,1.13995
0.04333,0.01386,0.0001,0.01394,0.46796,0.00329,0.47067,1.63215,1.24659,0.00877,1.25381
0.04789,0.01205,0.00009,0.01225,0.4071,0.00309,0.41363,1.80394,1.3248,0.01005,1.34605
0.05245,0.01061,0.00009,0.01076,0.35825,0.00292,0.36352,1.97574,1.39843,0.01139,1.41901
0.05701,0.00948,0.00009,0.00948,0.32021,0.0029,0.32031,2.14753,1.47679,0.01338,1.47725
0.06157,0.00832,0.00009,0.00839,0.28113,0.00288,0.28342,2.31932,1.51227,0.01547,1.52458
0.06613,0.00758,0.00008,0.00746,0.2561,0.00284,0.25201,2.49111,1.58927,0.01763,1.5639
0.07069,0.00677,0.00008,0.00667,0.2285,0.00277,0.22529,2.66289,1.62026,0.01964,1.59755
0.07525,0.00606,0.00008,0.006,0.20474,0.00272,0.20255,2.83467,1.64515,0.02188,1.62755
0.07981,0.00556,0.00008,0.00542,0.18766,0.00267,0.1831,3.00645,1.69622,0.02412,1.65496
0.08437,0.00526,0.00008,0.00492,0.17762,0.00261,0.16632,3.17822,1.7942,0.02632,1.67997
0.08893,0.00469,0.00008,0.00449,0.15835,0.00256,0.15179,3.34999,1.77711,0.02869,1.70343
0.09349,0.00409,0.00007,0.00412,0.138,0.00249,0.13915,3.52176,1.71156,0.03091,1.72579
0.09805,0.0039,0.00007,0.00379,0.13183,0.00245,0.12806,3.69352,1.79843,0.03339,1.74698
0.10261,0.00348,0.00007,0.0035,0.11741,0.00242,0.11831,3.86527,1.75417,0.03619,1.76754
0.10717,0.00332,0.00007,0.00325,0.11202,0.00247,0.10969,4.03704,1.82574,0.0402,1.78768
0.11173,0.00318,0.00007,0.00302,0.10752,0.00238,0.10203,4.20877,1.90455,0.04216,1.80735
0.11629,0.00282,0.00007,0.00282,0.09514,0.00231,0.09521,4.38051,1.8257,0.04431,1.82696
0.12085,0.00262,0.00007,0.00264,0.0885,0.00225,0.08911,4.55224,1.83401,0.04659,1.84663
0.12541,0.00247,0.00007,0.00248,0.08336,0.00222,0.08363,4.72398,1.86015,0.04964,1.86637
0.12996,0.00226,0.00007,0.00233,0.07628,0.00225,0.0787,4.89571,1.82824,0.05385,1.88629
0.13452,0.00211,0.00007,0.0022,0.07136,0.00232,0.07424,5.06741,1.83237,0.05945,1.90628
0.13908,0.00209,0.00007,0.00208,0.0707,0.00236,0.07017,5.23911,1.94055,0.06473,1.92618
0.14364,0.00192,0.00007,0.00197,0.06486,0.00236,0.06647,5.41084,1.89884,0.06905,1.94601
0.1482,0.00168,0.00007,0.00187,0.05675,0.00232,0.06307,5.58254,1.76868,0.07242,1.96556
0.15276,0.00162,0.00007,0.00177,0.05486,0.00233,0.05994,5.7542,1.81646,0.07699,1.98468
0.15731,0.0018,0.00007,0.00169,0.06072,0.00229,0.05705,5.9259,2.13224,0.08041,2.00333
0.16187,0.00134,0.00007,0.00161,0.04527,0.00229,0.05437,6.09756,1.68322,0.08518,2.02133
0.16643,0.00149,0.00007,0.00154,0.05019,0.00229,0.05187,6.26926,1.97279,0.09,2.03867
0.17098,0.0013,0.00007,0.00147,0.04375,0.00225,0.04955,6.44092,1.81501,0.09355,2.05551
0.17554,0.00123,0.00007,0.0014,0.04145,0.00225,0.04739,6.61254,1.81229,0.09832,2.07196
0.1801,0.00122,0.00007,0.00134,0.04105,0.00226,0.04537,6.7842,1.88932,0.10408,2.0881
0.18465,0.00122,0.00007,0.00129,0.04137,0.0024,0.04349,6.95582,2.00151,0.11627,2.10399
0.18921,0.00117,0.00007,0.00124,0.03954,0.00242,0.04172,7.12744,2.0085,0.1227,2.11963
0.19377,0.00108,0.00007,0.00119,0.03637,0.0023,0.04007,7.29907,1.93764,0.12272,2.13504
0.19832,0.00103,0.00007,0.00114,0.03476,0.00227,0.03853,7.47069,1.94005,0.12677,2.15026
0.20288,0.00094,0.00007,0.0011,0.03168,0.00223,0.03707,7.64227,1.85053,0.13029,2.16527
0.20743,0.00103,0.00007,0.00106,0.03491,0.00221,0.03571,7.81386,2.13174,0.13486,2.18008
0.21199,0.00093,0.00006,0.00102,0.03142,0.00218,0.03442,7.98544,2.00367,0.1393,2.19471
0.21654,0.00094,0.00006,0.00098,0.03166,0.00216,0.0332,8.15703,2.10643,0.14361,2.20911
0.2211,0.00079,0.00006,0.00095,0.02675,0.00213,0.03205,8.32857,1.85534,0.14766,2.22331
0.22565,0.0008,0.00006,0.00092,0.02693,0.0021,0.03097,8.50012,1.94577,0.15199,2.23729
0.2302,0.00069,0.00006,0.00089,0.02332,0.00208,0.02994,8.67167,1.7533,0.15618,2.25105
0.23476,0.00065,0.00006,0.00086,0.02185,0.00207,0.02896,8.84317,1.70894,0.16162,2.26455
0.23931,0.00077,0.00006,0.00083,0.02595,0.00205,0.02803,9.01468,2.10869,0.16658,2.27774
0.24386,0.00075,0.00006,0.0008,0.02533,0.00204,0.02714,9.18619,2.13736,0.17191,2.29058
0.24842,0.00076,0.00006,0.00078,0.0256,0.00201,0.0263,9.3577,2.24148,0.17618,2.30308
0.25297,0.0007,0.00006,0.00075,0.0235,0.002,0.0255,9.52917,2.1341,0.18152,2.31526
0.25752,0.00069,0.00006,0.00073,0.02314,0.002,0.02473,9.70065,2.17729,0.1883,2.32712
0.26207,0.00078,0.00006,0.00071,0.02626,0.00196,0.024,9.87208,2.55896,0.1913,2.33867
0.26662,0.0006,0.00006,0.00069,0.02035,0.00196,0.0233,10.04355,2.05263,0.19784,2.34991
0.27117,0.00063,0.00006,0.00067,0.02135,0.00195,0.02263,10.21498,2.22756,0.2031,2.36083
0.27572,0.00069,0.00006,0.00065,0.02339,0.00194,0.02198,10.38638,2.52285,0.20912,2.37152
0.28027,0.00056,0.00006,0.00063,0.01902,0.00192,0.02137,10.55778,2.12058,0.21412,2.38202
0.28482,0.00049,0.00006,0.00062,0.0167,0.0019,0.02078,10.72917,1.92259,0.21851,2.39238
0.28937,0.00058,0.00006,0.0006,0.0195,0.0019,0.02022,10.90057,2.31751,0.22551,2.40258
0.29392,0.00058,0.00006,0.00058,0.01973,0.00189,0.01968,11.07193,2.41843,0.23174,2.41258
0.29847,0.00063,0.00006,0.00057,0.02119,0.00187,0.01916,11.24329,2.67919,0.23581,2.42235
0.30302,0.00053,0.00006,0.00055,0.01807,0.00187,0.01866,11.41461,2.35384,0.244,2.43185
0.30757,0.00054,0.00006,0.00054,0.01836,0.00199,0.01819,11.58593,2.46465,0.26771,2.44106
0.31212,0.00044,0.00006,0.00052,0.01489,0.00206,0.01772,11.75725,2.05897,0.28479,2.44996
0.31666,0.00052,0.00006,0.00051,0.01754,0.00198,0.01728,11.92853,2.49555,0.28133,2.45856
0.32121,0.00056,0.00006,0.0005,0.01901,0.00192,0.01685,12.09981,2.78301,0.28081,2.46686
0.32576,0.0005,0.00006,0.00049,0.01688,0.0019,0.01644,12.27106,2.54137,0.28573,2.47506
0.3303,0.00043,0.00006,0.00047,0.01446,0.00188,0.01604,12.44231,2.23832,0.29159,2.48349
0.33485,0.0004,0.00005,0.00046,0.0136,0.00185,0.01567,12.61355,2.16313,0.2943,2.4925
0.33939,0.00042,0.00005,0.00045,0.01426,0.00183,0.01531,12.78476,2.33049,0.29853,2.50237
0.34394,0.00051,0.00006,0.00044,0.01716,0.00189,0.01497,12.95597,2.88025,0.31793,2.51331
0.34848,0.00047,0.00006,0.00043,0.01599,0.00196,0.01466,13.12714,2.75488,0.33741,2.52553
0.35303,0.00032,0.00006,0.00043,0.01067,0.00199,0.01436,13.29831,1.88767,0.35238,2.5393
0.35757,0.00033,0.00006,0.00042,0.01122,0.00201,0.01408,13.46944,2.03546,0.36531,2.5549
0.36211,0.00041,0.00006,0.00041,0.01401,0.00203,0.01383,13.64057,2.60655,0.37823,2.57266
0.36666,0.00039,0.00006,0.0004,0.01309,0.00205,0.01359,13.8117,2.49728,0.39054,2.59302
0.3712,0.00038,0.00006,0.0004,0.01289,0.00205,0.01338,13.9828,2.5207,0.40159,2.61649
0.37574,0.00039,0.00006,0.00039,0.01305,0.00205,0.0132,14.15389,2.61407,0.4109,2.6436
0.38028,0.00035,0.00006,0.00039,0.01199,0.00206,0.01304,14.32495,2.46029,0.42373,2.67492
0.38482,0.00027,0.00006,0.00038,0.00921,0.00206,0.0129,14.49597,1.93437,0.43359,2.71102
0.38936,0.00043,0.00006,0.00038,0.01468,0.00207,0.0128,14.66699,3.15737,0.44616,2.7525
0.3939,0.00031,0.00006,0.00038,0.01055,0.00209,0.01272,14.83801,2.32199,0.45988,2.79994
0.39844,0.00042,0.00006,0.00038,0.01404,0.00209,0.01267,15.00899,3.16173,0.47016,2.85387
0.40298,0.00029,0.00006,0.00037,0.00986,0.0021,0.01265,15.17997,2.27272,0.48454,2.91491
0.40752,0.00032,0.00006,0.00037,0.01092,0.00209,0.01266,15.35092,2.57341,0.49296,2.98368
0.41205,0.00026,0.00006,0.00038,0.00881,0.00208,0.0127,15.52186,2.1223,0.50066,3.06089
0.41659,0.00026,0.00006,0.00038,0.00881,0.00209,0.01278,15.69277,2.16863,0.51587,3.14724
0.42113,0.00036,0.00006,0.00038,0.01218,0.00211,0.01289,15.86367,3.0642,0.5301,3.2436
0.42566,0.00031,0.00006,0.00039,0.01047,0.00212,0.01303,16.03454,2.69226,0.54579,3.35083
0.4302,0.00025,0.00006,0.00039,0.00857,0.00212,0.01321,16.20537,2.24964,0.55759,3.46985
0.43473,0.00027,0.00007,0.0004,0.00916,0.00243,0.01343,16.37624,2.45608,0.6511,3.60172
0.43927,0.00032,0.00008,0.00041,0.01074,0.00264,0.01369,16.54704,2.94017,0.72223,3.74739
0.4438,0.00021,0.00008,0.00041,0.00694,0.00279,0.01398,16.71783,1.94023,0.77969,3.90802
0.44834,0.00029,0.00009,0.00042,0.00985,0.00296,0.01432,16.88859,2.81063,0.84317,4.08478
0.45287,0.00042,0.00009,0.00044,0.01403,0.00315,0.0147,17.05934,4.08358,0.91784,4.27893
0.4574,0.00039,0.0001,0.00045,0.01322,0.00328,0.01513,17.23006,3.92476,0.97354,4.49165
0.46193,0.00029,0.0001,0.00046,0.00973,0.00332,0.0156,17.40078,2.94689,1.00482,4.72418
0.46646,0.0002,0.0001,0.00048,0.0066,0.00345,0.01612,17.57146,2.03631,1.0649,4.97765
0.47099,0.00019,0.00011,0.00049,0.00627,0.00356,0.01669,17.74214,1.97449,1.12066,5.25342
0.47552,0.00038,0.00011,0.00051,0.01268,0.0036,0.01731,17.91278,4.06829,1.15651,5.55283
0.48005,0.00031,0.00011,0.00053,0.01046,0.00376,0.01797,18.08339,3.41948,1.22932,5.87732
0.48458,0.00032,0.00012,0.00055,0.01088,0.00397,0.01869,18.25399,3.62491,1.32435,6.22842
0.48911,0.00021,0.00012,0.00058,0.00693,0.00412,0.01946,18.42456,2.35107,1.39895,6.60754
0.49364,0.00016,0.00013,0.0006,0.00528,0.00432,0.02029,18.59509,1.82511,1.49204,7.01618
0.49817,0.00032,0.00013,0.00063,0.01084,0.00453,0.02117,18.76562,3.8179,1.59526,7.45597
0.50269,0.0001,0.00014,0.00065,0.00329,0.00478,0.02211,18.93611,1.18085,1.71497,7.92833
0.50722,0.00043,0.00015,0.00068,0.01448,0.00499,0.02311,19.1066,5.2873,1.82262,8.43497
0.50767,0.00021,0.00015,0.00069,0.00702,0.00508,0.02321,19.12367,2.56798,1.85735,8.48763