Folder: supportingdata/2025/starling_2025/figures/experimental_comparison/saxs_scattering/experiment/ibb

Note: 2025/starling_2025/figures/experimental_comparison/saxs_scattering/experiment/readme.md
# About

This directory contains scattering data and their reanalysis using the (wonderful) MFF of [Riback et al.](https://sosnick.uchicago.edu/SAXSonIDPs/).

This means for every SAXS piece of SAXS data here, we:

1. Verified it was of high quality
2. Re-evaluated it in a CONSISTENT (and in our experience, very robust) way


We feel this sets the highest bar for consistent, high-quality experimental data to compare against. We also hope this is generally useful for the community in the future.

### Files

* `sequences.fasta` - the sequences for all the proteins in this directory (53 proteins)
* `mff_analysis_all.csv` - a CSV file we 53 entries with three columns (name, $R_g$ value, $R_g$ error), as calculated for each scattering data directly using the [Molecular Form Factor](https://sosnick.uchicago.edu/SAXSonIDPs/). The Rg/error values here are summaries; for EACH entry, the full MFF output is in the `mff_out.csv` file in each directory.


### Subdirectories
* Each subdirectory (e.g., `alpha_syn`) contains a set of files:
	* `<filename>.dat` (or something like this), which is the original scattering data. If no `_clean.dat` file (described below) is present, this is the file that will be used for the scattering data.
	* `SASD<ID>.dat` - [optional] - some of the files have the original [SASBDB](https://www.sasbdb.org/) scattering data,
	* `<sequence-name>_clean.dat` - the final, cleaned scattering data in a self-consistent format, which, _if available_ will be the scattering data to use. 
	* `mff_out.csv` - full output from the MFF analysis of the cleaned scattering data.

File: mff_out.csv
#File Plotted Below: ibb.dat,,,,,,,,,,
,,,,,,,,,,
    #Fit from 0.01-0.25 with polymer MFF,,,,,,,,,,
#Initial search parameter for I0 = 1159.17,,,,,,,,,,
#Initial search parameter for Rg = 30,,,,,,,,,,
#Initial search parameter for nu = 0.499881,,,,,,,,,,
#BestFit for I0 = 1193.46 +- 8.84450,,,,,,,,,,
#BestFit for I(0)/I0 = 1.00000 +- 0.00741,,,,,,,,,,
#BestFit for Rg = 33.79204 +- 0.15398,,,,,,,,,,
#BestFit for nu = 0.55645 +- 0.00109,,,,,,,,,,
#BestFit reduced chisquared = 1.29704,,,,,,,,,,
#-------------,,,,,,,,,,
#-------------,,,,,,,,,,
,,,,,,,,,,
    #q,I(q),Error,fit,I(q)/I0,Error/I0,fit/I0,qRg,((qRg)^2)I(q)/I0,((qRg)^2)*Error/I0,((qRg)^2)*fit/I0
0.00433,1192.566,402.3376,1186.16,0.99925,0.33712,0.99388,0.14642,0.02142,0.00723,0.02131
0.00828,1102.229,108.1876,1163.02,0.92356,0.09065,0.9745,0.27979,0.0723,0.0071,0.07628
0.01223,1214.555,74.27361,1126.56,1.01768,0.06223,0.94395,0.41315,0.17371,0.01062,0.16113
0.01617,987.2002,62.99009,1079.09,0.82718,0.05278,0.90417,0.54652,0.24706,0.01576,0.27006
0.02012,979.4445,57.69269,1022.94,0.82068,0.04834,0.85713,0.67988,0.37935,0.02235,0.3962
0.02407,886.0838,51.76708,960.442,0.74245,0.04338,0.80476,0.81325,0.49104,0.02869,0.53225
0.02801,910.5089,48.50572,893.911,0.76292,0.04064,0.74901,0.94661,0.68363,0.03642,0.67117
0.03196,678.8121,43.66388,825.646,0.56878,0.03659,0.69181,1.07998,0.6634,0.04267,0.8069
0.03591,751.4639,42.10268,757.498,0.62965,0.03528,0.63471,1.21335,0.92698,0.05194,0.93443
0.03985,692.6126,43.81561,690.971,0.58034,0.03671,0.57897,1.34671,1.05252,0.06658,1.05003
0.0438,613.2131,39.71787,627.554,0.51381,0.03328,0.52583,1.48008,1.12557,0.0729,1.1519
0.04775,542.4541,18.51941,568.595,0.45452,0.01552,0.47643,1.61344,1.18321,0.04039,1.24023
0.05169,491.6055,18.30534,514.482,0.41192,0.01534,0.43109,1.74681,1.2569,0.0468,1.31539
0.05564,489.3758,17.0966,465.2312,0.41005,0.01433,0.38982,1.88018,1.44955,0.05064,1.37803
0.05959,436.7986,16.13932,420.8578,0.36599,0.01352,0.35264,2.01354,1.48387,0.05483,1.42971
0.06353,396.118,6.31235,381.2759,0.33191,0.00529,0.31947,2.14691,1.52983,0.02438,1.47251
0.06748,337.054,5.90035,346.112,0.28242,0.00494,0.29001,2.28027,1.46847,0.02571,1.50793
0.07143,323.624,5.665,314.933,0.27117,0.00475,0.26388,2.41364,1.57971,0.02765,1.53729
0.07537,280.154,5.31437,287.3114,0.23474,0.00445,0.24074,2.547,1.52282,0.02889,1.56173
0.07932,249.936,5.29221,262.845,0.20942,0.00443,0.22024,2.68037,1.50456,0.03186,1.58227
0.08327,243.742,4.93704,241.173,0.20423,0.00414,0.20208,2.81373,1.61692,0.03275,1.59988
0.08721,214.442,4.58783,221.941,0.17968,0.00384,0.18596,2.9471,1.5606,0.03339,1.61518
0.09116,208.349,4.52472,204.799,0.17458,0.00379,0.1716,3.08047,1.6566,0.03598,1.62837
0.09511,181.917,4.59952,189.476,0.15243,0.00385,0.15876,3.21383,1.57439,0.03981,1.63981
0.09905,177.446,4.48952,175.764,0.14868,0.00376,0.14727,3.3472,1.6658,0.04215,1.65
0.103,161.245,4.15374,163.456,0.13511,0.00348,0.13696,3.48055,1.63672,0.04216,1.65916
0.10695,152.464,4.01434,152.352,0.12775,0.00336,0.12766,3.61392,1.66847,0.04393,1.66724
0.11089,143.925,3.88274,142.313,0.1206,0.00325,0.11924,3.7473,1.69343,0.04568,1.67446
0.11484,134.036,3.72729,133.224,0.11231,0.00312,0.11163,3.88064,1.69131,0.04703,1.68106
0.11879,120.788,3.5679,124.964,0.10121,0.00299,0.10471,4.01402,1.63071,0.04817,1.68708
0.12273,115.995,3.42075,117.427,0.09719,0.00287,0.09839,4.1474,1.6718,0.0493,1.69243
0.12668,112.625,3.43574,110.5411,0.09437,0.00288,0.09262,4.28074,1.72928,0.05275,1.69729
0.13063,94.505,3.24977,104.236,0.07919,0.00272,0.08734,4.41412,1.54289,0.05306,1.70176
0.13457,97.8369,3.25087,98.4447,0.08198,0.00272,0.08249,4.5475,1.69528,0.05633,1.70581
0.13852,88.6341,3.13842,93.11179,0.07427,0.00263,0.07802,4.68084,1.6272,0.05762,1.70941
0.14247,90.0355,3.09004,88.19224,0.07544,0.00259,0.0739,4.81422,1.74847,0.06001,1.71267
0.14641,77.2834,3.01266,83.64661,0.06476,0.00252,0.07009,4.94759,1.58514,0.06179,1.71565
0.15036,84.0255,3.13297,79.43562,0.07041,0.00263,0.06656,5.08094,1.81757,0.06777,1.71829
0.15431,74.6425,3.12082,75.52501,0.06254,0.00261,0.06328,5.21431,1.70049,0.0711,1.72059
0.15825,73.7671,2.98629,71.89009,0.06181,0.0025,0.06024,5.34769,1.76762,0.07156,1.72264
0.1622,68.3236,2.91216,68.50604,0.05725,0.00244,0.0574,5.48103,1.71984,0.0733,1.72444
0.16615,63.4177,2.88373,65.34646,0.05314,0.00242,0.05475,5.61441,1.67499,0.07617,1.72593
0.17009,64.6204,2.8229,62.39363,0.05415,0.00237,0.05228,5.74779,1.78881,0.07814,1.72717
0.17404,61.4787,2.78386,59.63195,0.05151,0.00233,0.04997,5.88113,1.78172,0.08068,1.7282
0.17799,58.9929,2.71753,57.04377,0.04943,0.00228,0.0478,6.01451,1.78811,0.08237,1.72903
0.18193,52.9323,2.6971,54.61472,0.04435,0.00226,0.04576,6.14789,1.67635,0.08542,1.72964
0.18588,55.0589,2.7266,52.33376,0.04613,0.00228,0.04385,6.28123,1.82016,0.09014,1.73007
0.18983,47.2187,2.67199,50.18876,0.03956,0.00224,0.04205,6.41461,1.62797,0.09212,1.73037
0.19377,49.9497,2.71732,48.16938,0.04185,0.00228,0.04036,6.54798,1.79449,0.09762,1.73053
0.19772,43.7576,2.6838,46.26649,0.03666,0.00225,0.03877,6.68133,1.63671,0.10038,1.73055
0.20167,45.8555,2.69407,44.47154,0.03842,0.00226,0.03726,6.81471,1.78434,0.10483,1.73049
0.20561,43.3736,2.77488,42.77757,0.03634,0.00233,0.03584,6.94808,1.75448,0.11225,1.73037
0.20956,43.8894,2.94621,41.1776,0.03678,0.00247,0.0345,7.08143,1.84414,0.12379,1.7302
0.21351,44.6533,2.77061,39.66434,0.03742,0.00232,0.03323,7.2148,1.94758,0.12084,1.72998
0.21745,37.1317,2.7803,38.23245,0.03111,0.00233,0.03204,7.34818,1.67995,0.12579,1.72976
0.2214,39.526,2.80255,36.87649,0.03312,0.00235,0.0309,7.48152,1.85377,0.13144,1.72951
0.22535,36.1127,2.78109,35.59018,0.03026,0.00233,0.02982,7.6149,1.75461,0.13513,1.72923
0.22929,33.4876,2.76258,34.3693,0.02806,0.00231,0.0288,7.74828,1.68456,0.13897,1.72892
0.23324,35.4767,2.76368,33.20994,0.02973,0.00232,0.02783,7.88162,1.84658,0.14385,1.72859
0.23719,31.5773,2.75268,32.10733,0.02646,0.00231,0.0269,8.015,1.69971,0.14817,1.72824
0.24113,33.1201,2.76839,31.05784,0.02775,0.00232,0.02602,8.14838,1.84258,0.15401,1.72785
0.24508,36.2727,2.76358,30.0586,0.03039,0.00232,0.02519,8.28172,2.08456,0.15882,1.72744
0.24903,34.4047,2.74875,29.10612,0.02883,0.0023,0.02439,8.4151,2.0414,0.1631,1.72701
0.25297,34.2818,2.7776,28.19768,0.02872,0.00233,0.02363,8.54847,2.0991,0.17007,1.72657
0.25692,28.9147,2.7647,27.3308,0.02423,0.00232,0.0229,8.68182,1.82614,0.17461,1.7261
0.26087,31.0778,2.867,26.50277,0.02604,0.0024,0.02221,8.81519,2.02352,0.18667,1.72563
0.26481,31.2815,3.14461,25.71157,0.02621,0.00263,0.02154,8.94857,2.09888,0.21099,1.72516
0.26876,29.0657,2.92766,24.95518,0.02435,0.00245,0.02091,9.08191,2.00876,0.20233,1.72468
0.27271,30.2529,2.9226,24.2312,0.02535,0.00245,0.0203,9.21529,2.15267,0.20796,1.72419
0.27665,29.4362,2.8374,23.538,0.02466,0.00238,0.01972,9.34867,2.15563,0.20778,1.7237
0.2806,30.3969,2.84121,22.8739,0.02547,0.00238,0.01917,9.48201,2.28994,0.21404,1.72319
0.28455,21.6935,2.78987,22.2368,0.01818,0.00234,0.01863,9.61539,1.68057,0.21613,1.72266
0.28849,21.0057,2.78975,21.6255,0.0176,0.00234,0.01812,9.74877,1.67274,0.22216,1.7221
0.29244,27.0701,2.81356,21.0389,0.02268,0.00236,0.01763,9.88211,2.21504,0.23022,1.72153
0.29639,26.4135,2.79303,20.47547,0.02213,0.00234,0.01716,10.01549,2.22005,0.23475,1.72096
0.30033,21.8381,2.75744,19.93417,0.0183,0.00231,0.0167,10.14886,1.8847,0.23798,1.72039
0.30428,24.1956,2.77402,19.414,0.02027,0.00232,0.01627,10.28221,2.14339,0.24574,1.71981
0.30823,29.4717,2.80496,18.91362,0.02469,0.00235,0.01585,10.41558,2.67896,0.25497,1.71923
0.31217,21.475,2.76048,18.43206,0.01799,0.00231,0.01544,10.54896,2.00238,0.25739,1.71865
0.31612,21.0906,2.8472,17.96849,0.01767,0.00239,0.01506,10.68231,2.01656,0.27223,1.71805
0.32007,22.0263,3.1805,17.52195,0.01846,0.00266,0.01468,10.81568,2.15895,0.31174,1.71745
0.32401,16.2138,2.95447,17.09192,0.01359,0.00248,0.01432,10.94903,1.62865,0.29677,1.71686
0.32796,23.2689,2.90498,16.67748,0.0195,0.00243,0.01397,11.0824,2.39462,0.29895,1.71629
0.33191,22.6498,2.87138,16.27809,0.01898,0.00241,0.01364,11.21578,2.38735,0.30265,1.71576
0.33585,22.186,2.83304,15.89323,0.01859,0.00237,0.01332,11.34912,2.3944,0.30575,1.71526
0.3398,22.7983,2.82,15.5221,0.0191,0.00236,0.01301,11.4825,2.51865,0.31154,1.71481
0.34375,21.9331,2.82655,15.1642,0.01838,0.00237,0.01271,11.61588,2.47969,0.31956,1.71442
0.34769,20.9727,2.8088,14.8189,0.01757,0.00235,0.01242,11.74922,2.42586,0.32489,1.71406
0.35164,20.0278,2.81694,14.48532,0.01678,0.00236,0.01214,11.8826,2.36946,0.33327,1.71374
0.35559,22.7096,2.81464,14.16283,0.01903,0.00236,0.01187,12.01598,2.74739,0.34051,1.71341
0.35953,21.0011,2.81894,13.85085,0.0176,0.00236,0.01161,12.14932,2.5974,0.34864,1.71306
0.36348,17.5981,2.7884,13.54878,0.01475,0.00234,0.01135,12.2827,2.22457,0.35248,1.7127
0.36743,19.3788,2.79505,13.25629,0.01624,0.00234,0.01111,12.41607,2.50316,0.36104,1.71231
0.37137,24.3337,2.7752,12.97303,0.02039,0.00233,0.01087,12.54942,3.21106,0.36621,1.71191
0.37532,13.5446,3.24622,12.69825,0.01135,0.00272,0.01064,12.68279,1.82553,0.43752,1.71146
0.37927,17.405,3.07117,12.43116,0.01458,0.00257,0.01042,12.81617,2.39543,0.42268,1.71089
0.38321,19.3299,3.04872,12.17091,0.0162,0.00255,0.0102,12.94951,2.716,0.42837,1.71011
0.38716,17.3576,3.05478,11.9165,0.01454,0.00256,0.00998,13.08289,2.48937,0.43811,1.70903
0.39111,16.9174,3.11701,11.66734,0.01418,0.00261,0.00978,13.21627,2.47596,0.45619,1.70759
0.39505,23.7475,3.10799,11.42305,0.0199,0.0026,0.00957,13.34961,3.54608,0.4641,1.70574
0.399,16.7154,3.14736,11.18302,0.01401,0.00264,0.00937,13.48299,2.54614,0.47942,1.70343
0.40295,16.5648,3.14113,10.94685,0.01388,0.00263,0.00917,13.61637,2.57337,0.48798,1.70061
0.40689,8.73636,3.18096,10.71405,0.00732,0.00267,0.00898,13.74971,1.38392,0.50389,1.6972
0.41084,18.2147,3.28471,10.48392,0.01526,0.00275,0.00878,13.88309,2.94162,0.53047,1.69312
0.41479,17.0019,3.32908,10.25594,0.01425,0.00279,0.00859,14.01646,2.79877,0.54802,1.68828
0.41873,17.8172,3.36776,10.02963,0.01493,0.00282,0.0084,14.14981,2.98905,0.56498,1.68259
0.42268,10.2257,3.39288,9.8045,0.00857,0.00284,0.00822,14.28318,1.74798,0.57998,1.67598
0.42663,14.6738,3.60609,9.58026,0.0123,0.00302,0.00803,14.41656,2.5554,0.62799,1.66838
0.43057,14.2124,4.65706,9.3566,0.01191,0.0039,0.00784,14.54991,2.52105,0.82609,1.65971
0.43452,14.5717,5.16908,9.13304,0.01221,0.00433,0.00765,14.68328,2.63239,0.9338,1.64989
0.43847,10.792,5.65587,8.9092,0.00904,0.00474,0.00747,14.81666,1.98516,1.04038,1.63882
0.44241,22.8632,6.34303,8.68473,0.01916,0.00531,0.00728,14.95,4.28166,1.18788,1.62642
0.44504,1.36276,18.0356,8.53446,0.00114,0.01511,0.00715,15.03891,0.25825,3.41788,1.61734