Folder: supportingdata/2025/starling_2025/figures/experimental_comparison/saxs_scattering/experiment/laf1_rgg_ysg2max

Note: 2025/starling_2025/figures/experimental_comparison/saxs_scattering/experiment/readme.md
# About

This directory contains scattering data and their reanalysis using the (wonderful) MFF of [Riback et al.](https://sosnick.uchicago.edu/SAXSonIDPs/).

This means for every SAXS piece of SAXS data here, we:

1. Verified it was of high quality
2. Re-evaluated it in a CONSISTENT (and in our experience, very robust) way


We feel this sets the highest bar for consistent, high-quality experimental data to compare against. We also hope this is generally useful for the community in the future.

### Files

* `sequences.fasta` - the sequences for all the proteins in this directory (53 proteins)
* `mff_analysis_all.csv` - a CSV file we 53 entries with three columns (name, $R_g$ value, $R_g$ error), as calculated for each scattering data directly using the [Molecular Form Factor](https://sosnick.uchicago.edu/SAXSonIDPs/). The Rg/error values here are summaries; for EACH entry, the full MFF output is in the `mff_out.csv` file in each directory.


### Subdirectories
* Each subdirectory (e.g., `alpha_syn`) contains a set of files:
	* `<filename>.dat` (or something like this), which is the original scattering data. If no `_clean.dat` file (described below) is present, this is the file that will be used for the scattering data.
	* `SASD<ID>.dat` - [optional] - some of the files have the original [SASBDB](https://www.sasbdb.org/) scattering data,
	* `<sequence-name>_clean.dat` - the final, cleaned scattering data in a self-consistent format, which, _if available_ will be the scattering data to use. 
	* `mff_out.csv` - full output from the MFF analysis of the cleaned scattering data.

File: mff_out.csv
#File Plotted Below: LAF1-G2MAX_hepes_RT.dat,,,,,,,,,,
,,,,,,,,,,
    #Fit from 0.01-0.15 with polymer MFF,,,,,,,,,,
#Initial search parameter for I0 = 5.74096e-05,,,,,,,,,,
#Initial search parameter for Rg = 30,,,,,,,,,,
#Initial search parameter for nu = 0.499881,,,,,,,,,,
#BestFit for I0 = 0.00006 +- 0.00000,,,,,,,,,,
#BestFit for I(0)/I0 = 1.00000 +- 0.00253,,,,,,,,,,
#BestFit for Rg = 31.47861 +- 0.09266,,,,,,,,,,
#BestFit for nu = 0.46077 +- 0.00273,,,,,,,,,,
#BestFit reduced chisquared = 1.26546,,,,,,,,,,
#-------------,,,,,,,,,,
#-------------,,,,,,,,,,
,,,,,,,,,,
    #q,I(q),Error,fit,I(q)/I0,Error/I0,fit/I0,qRg,((qRg)^2)I(q)/I0,((qRg)^2)*Error/I0,((qRg)^2)*fit/I0
0.0046,0.00006,0,0.00006,1.00067,0.06744,0.99376,0.14482,0.02099,0.00141,0.02084
0.00748,0.00005,0,0.00006,0.72639,0.07672,0.98172,0.23533,0.04023,0.00425,0.05437
0.01035,0.00005,0,0.00006,0.8779,0.05167,0.96417,0.32584,0.09321,0.00549,0.10237
0.01323,0.00006,0,0.00006,0.9462,0.02242,0.94175,0.41635,0.16402,0.00389,0.16325
0.0161,0.00006,0,0.00006,0.89041,0.01809,0.91508,0.50687,0.22876,0.00465,0.2351
0.01898,0.00006,0,0.00006,0.89307,0.01393,0.88481,0.59738,0.3187,0.00497,0.31575
0.02185,0.00005,0,0.00005,0.85645,0.01263,0.85156,0.68789,0.40527,0.00598,0.40295
0.02473,0.00005,0,0.00005,0.78911,0.01137,0.81597,0.7784,0.47813,0.00689,0.4944
0.0276,0.00005,0,0.00005,0.789,0.00984,0.77866,0.86891,0.5957,0.00743,0.58789
0.03048,0.00005,0,0.00005,0.7272,0.00929,0.74028,0.95942,0.66937,0.00855,0.68142
0.03335,0.00004,0,0.00004,0.7082,0.0088,0.70145,1.04993,0.78068,0.0097,0.77324
0.03623,0.00004,0,0.00004,0.66922,0.00844,0.66264,1.14044,0.87038,0.01098,0.86183
0.0391,0.00004,0,0.00004,0.62896,0.00824,0.62422,1.23095,0.95302,0.01248,0.94584
0.04198,0.00004,0,0.00004,0.57745,0.00786,0.58653,1.32145,1.00836,0.01373,1.02421
0.04485,0.00003,0,0.00003,0.55169,0.00783,0.54991,1.41196,1.09987,0.01561,1.09632
0.04773,0.00003,0,0.00003,0.5059,0.00811,0.51472,1.50247,1.14203,0.0183,1.16192
0.0506,0.00003,0,0.00003,0.50003,0.00791,0.48123,1.59297,1.26885,0.02008,1.22115
0.05348,0.00003,0,0.00003,0.45651,0.0078,0.44951,1.68348,1.29378,0.02209,1.27395
0.05636,0.00003,0,0.00003,0.42143,0.00777,0.41954,1.77398,1.32626,0.02446,1.3203
0.05923,0.00003,0,0.00002,0.40441,0.00757,0.39133,1.86448,1.40586,0.02633,1.36036
0.06211,0.00002,0,0.00002,0.35117,0.00747,0.36486,1.95498,1.34217,0.02857,1.39446
0.06498,0.00002,0,0.00002,0.3319,0.00737,0.34013,2.04549,1.38868,0.03085,1.42309
0.06786,0.00002,0,0.00002,0.32093,0.00727,0.31709,2.13599,1.46421,0.03315,1.44669
0.07073,0.00002,0,0.00002,0.2801,0.0072,0.29566,2.22648,1.38852,0.03571,1.46564
0.0736,0.00002,0,0.00002,0.27583,0.00767,0.27574,2.31698,1.48074,0.0412,1.48031
0.07648,0.00002,0,0.00002,0.25926,0.00783,0.25726,2.40748,1.50269,0.04539,1.49107
0.07935,0.00001,0,0.00002,0.23138,0.00706,0.24011,2.49797,1.44377,0.04404,1.49828
0.08223,0.00001,0,0.00001,0.22322,0.00697,0.22422,2.58847,1.49559,0.04672,1.50231
0.0851,0.00001,0,0.00001,0.2051,0.00683,0.2095,2.67896,1.472,0.04904,1.50353
0.08798,0.00001,0,0.00001,0.19405,0.00669,0.19587,2.76945,1.48831,0.05131,1.50228
0.09085,0.00001,0,0.00001,0.1777,0.00646,0.18325,2.85994,1.45342,0.05284,1.49886
0.09373,0.00001,0,0.00001,0.18081,0.00645,0.17157,2.95043,1.57399,0.05615,1.49352
0.0966,0.00001,0,0.00001,0.16198,0.00639,0.16074,3.04092,1.4979,0.05907,1.48644
0.09948,0.00001,0,0.00001,0.14655,0.00624,0.15071,3.1314,1.437,0.06119,1.47781
0.10235,0.00001,0,0.00001,0.13847,0.00622,0.14141,3.22189,1.43738,0.06454,1.46792
0.10523,0.00001,0,0.00001,0.13154,0.00596,0.1328,3.31237,1.4432,0.06537,1.45701
0.1081,0.00001,0,0.00001,0.11964,0.00586,0.12481,3.40285,1.38536,0.06781,1.44524
0.11097,0.00001,0,0.00001,0.11965,0.00596,0.11741,3.49333,1.46019,0.07278,1.43274
0.11385,0.00001,0,0.00001,0.10539,0.00584,0.11053,3.58381,1.35354,0.07505,1.41958
0.11672,0.00001,0,0.00001,0.10048,0.00576,0.10414,3.67428,1.35651,0.07773,1.40593
0.1196,0.00001,0,0.00001,0.10009,0.00582,0.09821,3.76476,1.41857,0.08253,1.39196
0.12247,0.00001,0,0.00001,0.08655,0.00565,0.0927,3.85523,1.28639,0.08393,1.37781
0.12535,0.00001,0,0.00001,0.0898,0.006,0.08758,3.9457,1.39798,0.09347,1.36356
0.12822,0,0,0.00001,0.07663,0.00587,0.08282,4.03617,1.24833,0.09559,1.34924
0.13109,0,0,0,0.07453,0.00568,0.07839,4.12663,1.26922,0.09673,1.3349
0.13397,0.00001,0,0,0.08096,0.00596,0.07426,4.2171,1.43975,0.10593,1.32067
0.13684,0,0,0,0.06958,0.00605,0.07042,4.30756,1.29109,0.1122,1.30662
0.13971,0,0,0,0.07358,0.0057,0.06684,4.39802,1.42327,0.11023,1.29281
0.14259,0,0,0,0.06653,0.00558,0.0635,4.48847,1.34043,0.11237,1.27925
0.14546,0,0,0,0.07037,0.00535,0.06038,4.57893,1.47541,0.11212,1.26593
0.14834,0,0,0,0.0562,0.00535,0.05746,4.66938,1.2254,0.11665,1.25289
0.15121,0,0,0,0.06607,0.00522,0.05474,4.75983,1.49695,0.1182,1.24019
0.15408,0,0,0,0.05658,0.00524,0.05219,4.85028,1.33107,0.12318,1.22786
0.15695,0,0,0,0.05345,0.00524,0.04981,4.94073,1.30474,0.12784,1.2159
0.15983,0,0,0,0.04649,0.00519,0.04758,5.03117,1.17691,0.13132,1.20427
0.1627,0,0,0,0.04188,0.00508,0.04548,5.12161,1.09852,0.13336,1.19297
0.16557,0,0,0,0.04298,0.00507,0.04351,5.21205,1.16763,0.13772,1.18201
0.16845,0,0,0,0.04248,0.00501,0.04166,5.30248,1.19436,0.14093,1.1714
0.17132,0,0,0,0.04525,0.00496,0.03992,5.39291,1.31591,0.14419,1.16116
0.17419,0,0,0,0.04933,0.00499,0.03829,5.48334,1.48332,0.15008,1.15123
0.17707,0,0,0,0.04059,0.00494,0.03675,5.57377,1.26099,0.15347,1.14158
0.17994,0,0,0,0.04106,0.0048,0.03529,5.6642,1.31739,0.15415,1.13221
0.18281,0,0,0,0.03289,0.0048,0.03392,5.75462,1.0893,0.15906,1.12312
0.18568,0,0,0,0.03669,0.00479,0.03262,5.84504,1.25337,0.16372,1.11432
0.18856,0,0,0,0.03607,0.00481,0.03139,5.93545,1.2708,0.16948,1.10578
0.19143,0,0,0,0.02803,0.00478,0.03022,6.02586,1.01785,0.17343,1.09747
0.1943,0,0,0,0.02696,0.00489,0.02912,6.11627,1.00842,0.18292,1.08937
0.19717,0,0,0,0.02756,0.00495,0.02807,6.20668,1.06178,0.19066,1.08149
0.20004,0,0,0,0.03243,0.00485,0.02708,6.29708,1.28581,0.19216,1.07383
0.20292,0,0,0,0.02606,0.00473,0.02614,6.38749,1.06324,0.19307,1.06639
0.20579,0,0,0,0.02731,0.00474,0.02524,6.47788,1.14601,0.19893,1.05915
0.20866,0,0,0,0.03187,0.00463,0.02439,6.56828,1.37486,0.19966,1.05209
0.21153,0,0,0,0.02431,0.00456,0.02357,6.65867,1.07802,0.20229,1.04521
0.2144,0,0,0,0.03562,0.00448,0.0228,6.74905,1.62231,0.20423,1.0385
0.21727,0,0,0,0.01831,0.00452,0.02206,6.83944,0.8566,0.21138,1.03198
0.22014,0,0,0,0.0229,0.00452,0.02136,6.92982,1.09956,0.21683,1.02563
0.22301,0,0,0,0.02361,0.00446,0.02069,7.0202,1.16344,0.21983,1.01943
0.22589,0,0,0,0.02245,0.00446,0.02004,7.11057,1.13486,0.22536,1.01337
0.22876,0,0,0,0.02654,0.0044,0.01943,7.20094,1.37634,0.2282,1.00747
0.23163,0,0,0,0.02041,0.00432,0.01884,7.2913,1.08519,0.22987,1.00171
0.2345,0,0,0,0.02292,0.00428,0.01828,7.38167,1.249,0.23318,0.99611
0.23737,0,0,0,0.01686,0.00429,0.01774,7.47203,0.94104,0.23957,0.99066
0.24024,0,0,0,0.02082,0.00432,0.01723,7.56238,1.19083,0.24705,0.98535
0.24311,0,0,0,0.01961,0.00429,0.01674,7.65273,1.14843,0.25123,0.98017
0.24598,0,0,0,0.01097,0.00423,0.01626,7.74308,0.65754,0.25355,0.97514
0.24885,0,0,0,0.01399,0.00422,0.01581,7.83342,0.85833,0.25915,0.97026
0.25172,0,0,0,0.02227,0.00418,0.01538,7.92376,1.39822,0.26214,0.96551
0.25459,0,0,0,0.01846,0.00416,0.01496,8.0141,1.18554,0.26727,0.9609
0.25746,0,0,0,0.01316,0.00441,0.01456,8.10443,0.86442,0.28959,0.95642
0.26033,0,0,0,0.01518,0.00444,0.01418,8.19476,1.01917,0.29819,0.95208
0.2632,0,0,0,0.01569,0.00456,0.01381,8.28508,1.07681,0.31315,0.94787
0.26607,0,0,0,0.01623,0.00456,0.01345,8.3754,1.1384,0.31998,0.94379
0.26894,0,0,0,0.0107,0.00509,0.01311,8.46572,0.7672,0.36496,0.93984
0.2718,0,0,0,0.01071,0.0054,0.01279,8.55603,0.78423,0.39506,0.93601
0.27467,0,0,0,0.01601,0.00557,0.01247,8.64633,1.19673,0.41673,0.9323
0.27754,0,0,0,0.01681,0.00574,0.01217,8.73664,1.28281,0.43798,0.92871
0.28041,0,0,0,0.02301,0.00594,0.01188,8.82693,1.79253,0.46245,0.92524
0.28328,0,0,0,0.0226,0.00614,0.01159,8.91723,1.79743,0.48802,0.92189
0.28615,0,0,0,0.02774,0.0063,0.01132,9.00752,2.25033,0.51148,0.91865
0.28902,0,0,0,0.02937,0.0065,0.01106,9.0978,2.43092,0.53764,0.91552
0.29188,0,0,0,0.00582,0.00659,0.01081,9.18808,0.4912,0.55643,0.91249
0.29475,0,0,0,0.01997,0.00675,0.01057,9.27836,1.71876,0.58088,0.90956
0.29762,0,0,0,0.00461,0.0069,0.01033,9.36863,0.4047,0.60552,0.90673
0.30049,0,0,0,0.01761,0.00707,0.0101,9.45889,1.57524,0.63229,0.90399
0.30335,0,0,0,0.0196,0.00721,0.00988,9.54916,1.78683,0.65762,0.90133
0.30622,0,0,0,0.02107,0.00753,0.00967,9.63941,1.95821,0.69928,0.89876
0.30909,0,0,0,0.01794,0.0078,0.00947,9.72966,1.69811,0.73798,0.89626
0.31195,0,0,0,0.01315,0.00794,0.00927,9.81991,1.26827,0.76583,0.89385
0.31482,0,0,0,0.00533,0.00805,0.00908,9.91015,0.52385,0.79074,0.89152
0.31769,0,0,0,-0.00643,0.00814,0.00889,10.00039,-0.64342,0.8139,0.88928
0.32055,0,0,0,0.01179,0.00866,0.00871,10.09062,1.2004,0.88133,0.88713
0.32342,0,0,0,0.01368,0.00919,0.00854,10.18085,1.41832,0.95217,0.88505
0.32629,0,0,0,0.02268,0.0097,0.00837,10.27107,2.39219,1.02321,0.88305
0.32915,0,0,0,0.02118,0.00991,0.00821,10.36129,2.27361,1.06337,0.88112
0.33202,0,0,0,0.00348,0.0098,0.00805,10.4515,0.38012,1.07039,0.87926
0.33488,0,0,0,0.01626,0.01005,0.0079,10.5417,1.80712,1.1173,0.87747
0.33775,0,0,0,0.00693,0.01029,0.00775,10.6319,0.78351,1.16266,0.87572
0.34062,0,0,0,0.0266,0.01134,0.0076,10.7221,3.05776,1.30324,0.87403
0.34348,0,0,0,0.00315,0.0122,0.00746,10.81229,0.36769,1.42605,0.8724
0.34635,0,0,0,0.02625,0.01296,0.00733,10.90248,3.1196,1.5407,0.87081
0.34921,0,0,0,-0.00257,0.01393,0.00719,10.99266,-0.31082,1.68378,0.86927
0.35207,0,0,0,0.02358,0.01489,0.00706,11.08283,2.8967,1.82849,0.86778
0.35494,0,0,0,0.01446,0.01528,0.00694,11.173,1.80537,1.90764,0.86633
0.3578,0,0,0,0.00527,0.01747,0.00682,11.26316,0.66812,2.21652,0.86493
0.36067,0,0,0,0.01523,0.02168,0.0067,11.35332,1.96255,2.79418,0.86358
0.36296,0,0,0,0.00541,0.02662,0.00661,11.42544,0.70672,3.47479,0.86255