Folder: supportingdata/2025/starling_2025/figures/experimental_comparison/saxs_scattering/experiment/n_cornid

Note: 2025/starling_2025/figures/experimental_comparison/saxs_scattering/experiment/readme.md
# About

This directory contains scattering data and their reanalysis using the (wonderful) MFF of [Riback et al.](https://sosnick.uchicago.edu/SAXSonIDPs/).

This means for every SAXS piece of SAXS data here, we:

1. Verified it was of high quality
2. Re-evaluated it in a CONSISTENT (and in our experience, very robust) way


We feel this sets the highest bar for consistent, high-quality experimental data to compare against. We also hope this is generally useful for the community in the future.

### Files

* `sequences.fasta` - the sequences for all the proteins in this directory (53 proteins)
* `mff_analysis_all.csv` - a CSV file we 53 entries with three columns (name, $R_g$ value, $R_g$ error), as calculated for each scattering data directly using the [Molecular Form Factor](https://sosnick.uchicago.edu/SAXSonIDPs/). The Rg/error values here are summaries; for EACH entry, the full MFF output is in the `mff_out.csv` file in each directory.


### Subdirectories
* Each subdirectory (e.g., `alpha_syn`) contains a set of files:
	* `<filename>.dat` (or something like this), which is the original scattering data. If no `_clean.dat` file (described below) is present, this is the file that will be used for the scattering data.
	* `SASD<ID>.dat` - [optional] - some of the files have the original [SASBDB](https://www.sasbdb.org/) scattering data,
	* `<sequence-name>_clean.dat` - the final, cleaned scattering data in a self-consistent format, which, _if available_ will be the scattering data to use. 
	* `mff_out.csv` - full output from the MFF analysis of the cleaned scattering data.

File: mff_out.csv
#File Plotted Below: n_cornid_clean.dat,,,,,,,,,,
,,,,,,,,,,
    #Fit from 0.01-0.15 with polymer MFF,,,,,,,,,,
#Initial search parameter for I0 = 24.1623,,,,,,,,,,
#Initial search parameter for Rg = 30,,,,,,,,,,
#Initial search parameter for nu = 0.499881,,,,,,,,,,
#BestFit for I0 = 26.71706 +- 0.07248,,,,,,,,,,
#BestFit for I(0)/I0 = 1.00000 +- 0.00271,,,,,,,,,,
#BestFit for Rg = 48.60844 +- 0.12475,,,,,,,,,,
#BestFit for nu = 0.55970 +- 0.00205,,,,,,,,,,
#BestFit reduced chisquared = 0.85864,,,,,,,,,,
#-------------,,,,,,,,,,
#-------------,,,,,,,,,,
,,,,,,,,,,
    #q,I(q),Error,fit,I(q)/I0,Error/I0,fit/I0,qRg,((qRg)^2)I(q)/I0,((qRg)^2)*Error/I0,((qRg)^2)*fit/I0
0.01007,25.38804,0.36758,24.64028,0.95026,0.01376,0.92227,0.48935,0.22755,0.00329,0.22085
0.01479,22.83899,0.26589,22.5066,0.85485,0.00995,0.84241,0.71874,0.4416,0.00514,0.43517
0.01951,19.75946,0.21588,19.99653,0.73958,0.00808,0.74846,0.94812,0.66484,0.00726,0.67281
0.02422,17.40265,0.18455,17.36732,0.65137,0.00691,0.65005,1.17751,0.90314,0.00958,0.9013
0.02894,14.7811,0.16082,14.81807,0.55325,0.00602,0.55463,1.40689,1.09506,0.01191,1.0978
0.03366,12.09278,0.14763,12.5138,0.45262,0.00553,0.46838,1.63628,1.21185,0.01479,1.25405
0.03838,10.77489,0.15757,10.52936,0.4033,0.0059,0.39411,1.86566,1.40375,0.02053,1.37176
0.0431,8.8835,0.17919,8.86792,0.3325,0.00671,0.33192,2.09505,1.45943,0.02944,1.45687
0.04782,7.53143,0.16971,7.50915,0.2819,0.00635,0.28106,2.32443,1.52308,0.03432,1.51857
0.05254,6.49796,0.15523,6.40548,0.24321,0.00581,0.23975,2.55382,1.58623,0.03789,1.56366
0.05726,5.70244,0.14366,5.51019,0.21344,0.00538,0.20624,2.7832,1.65334,0.04165,1.59759
0.06198,4.87076,0.13774,4.78189,0.18231,0.00516,0.17898,3.01258,1.65457,0.04679,1.62438
0.0667,4.30499,0.13236,4.18315,0.16113,0.00495,0.15657,3.24197,1.69356,0.05207,1.64563
0.07141,3.66797,0.12725,3.68793,0.13729,0.00476,0.13804,3.47135,1.65438,0.05739,1.66338
0.07613,3.23502,0.12322,3.27375,0.12108,0.00461,0.12253,3.70074,1.65831,0.06316,1.67816
0.08085,3.08112,0.12023,2.92479,0.11532,0.0045,0.10947,3.93012,1.78128,0.06951,1.6909
0.08557,2.6613,0.11649,2.62801,0.09961,0.00436,0.09836,4.15951,1.72341,0.07544,1.70185
0.09029,2.34554,0.11339,2.37367,0.08779,0.00424,0.08884,4.38889,1.69108,0.08175,1.71136
0.09501,2.22178,0.11098,2.15413,0.08316,0.00415,0.08063,4.61828,1.77367,0.0886,1.71967
0.09973,1.90276,0.10806,1.96325,0.07122,0.00404,0.07348,4.84766,1.67363,0.09505,1.72684
0.10445,1.78961,0.10567,1.79634,0.06698,0.00396,0.06724,5.07705,1.7266,0.10195,1.7331
0.10917,1.66263,0.10377,1.64941,0.06223,0.00388,0.06174,5.30643,1.75231,0.10936,1.73839
0.11389,1.47808,0.10144,1.51948,0.05532,0.0038,0.05687,5.53582,1.6954,0.11635,1.74289
0.11861,1.3647,0.09953,1.40389,0.05108,0.00373,0.05255,5.7652,1.69777,0.12382,1.74652
0.12332,1.45075,0.11148,1.30071,0.0543,0.00417,0.04868,5.99459,1.95129,0.14994,1.74949
0.12804,1.0852,0.10411,1.20818,0.04062,0.0039,0.04522,6.22397,1.57346,0.15095,1.75177
0.13276,1.14523,0.09804,1.12496,0.04287,0.00367,0.04211,6.45336,1.78516,0.15282,1.75356
0.13748,1.05252,0.09563,1.04986,0.0394,0.00358,0.0393,6.68274,1.75934,0.15986,1.75489
0.1422,1.03314,0.0942,0.98191,0.03867,0.00353,0.03675,6.91213,1.84753,0.16846,1.75592
0.14692,1.07858,0.09264,0.92029,0.04037,0.00347,0.03445,7.14151,2.05894,0.17685,1.75677
0.15164,0.83522,0.09075,0.86426,0.03126,0.0034,0.03235,7.3709,1.69845,0.18455,1.7575
0.15636,0.85884,0.09445,0.81317,0.03215,0.00354,0.03044,7.60028,1.85687,0.2042,1.75813
0.16108,0.78451,0.08908,0.76644,0.02936,0.00333,0.02869,7.82967,1.80011,0.2044,1.75865
0.1658,0.74292,0.08782,0.72361,0.02781,0.00329,0.02708,8.05905,1.80601,0.21348,1.75907
0.17051,0.6758,0.08647,0.68423,0.02529,0.00324,0.02561,8.28844,1.73771,0.22235,1.75937
0.17523,0.71019,0.0853,0.64795,0.02658,0.00319,0.02425,8.51782,1.9286,0.23164,1.7596
0.17995,0.67607,0.08416,0.61447,0.0253,0.00315,0.023,8.7472,1.93615,0.24101,1.75973
0.18467,0.75565,0.08336,0.58349,0.02828,0.00312,0.02184,8.97659,2.27906,0.25142,1.75983
0.18939,0.67959,0.08209,0.55479,0.02544,0.00307,0.02077,9.20598,2.15576,0.2604,1.75986
0.19411,0.50123,0.08065,0.52813,0.01876,0.00302,0.01977,9.43536,1.67018,0.26873,1.75984
0.19883,0.65254,0.0799,0.50333,0.02442,0.00299,0.01884,9.66475,2.28137,0.27934,1.75971
0.20355,0.61395,0.08752,0.4802,0.02298,0.00328,0.01797,9.89413,2.24956,0.32068,1.75951
0.20827,0.5326,0.08322,0.45862,0.01993,0.00311,0.01717,10.12351,2.04305,0.31922,1.75926
0.21299,0.49451,0.07956,0.43845,0.01851,0.00298,0.01641,10.3529,1.98384,0.31918,1.75897
0.2177,0.43937,0.07805,0.41957,0.01645,0.00292,0.0157,10.58228,1.84163,0.32717,1.75864
0.22242,0.61166,0.0775,0.40187,0.02289,0.0029,0.01504,10.81167,2.67615,0.33906,1.75827
0.22714,0.44325,0.07605,0.38527,0.01659,0.00285,0.01442,11.04106,2.02247,0.34699,1.75792
0.23186,0.50723,0.07532,0.36968,0.01899,0.00282,0.01384,11.27044,2.41157,0.35809,1.75762
0.23658,0.58628,0.07466,0.35504,0.02194,0.00279,0.01329,11.49982,2.90202,0.36955,1.75742
0.2413,0.44847,0.07356,0.34128,0.01679,0.00275,0.01277,11.72921,2.30933,0.37881,1.75733
0.24602,0.5192,0.07296,0.3283,0.01943,0.00273,0.01229,11.95859,2.77909,0.39053,1.7573
0.25074,0.42873,0.07212,0.31604,0.01605,0.0027,0.01183,12.18798,2.38373,0.40098,1.75721
0.25546,0.42431,0.07113,0.30445,0.01588,0.00266,0.0114,12.41737,2.44877,0.41052,1.75705
0.26018,0.39951,0.07068,0.29347,0.01495,0.00265,0.01098,12.64675,2.39165,0.42311,1.75683
0.2649,0.47581,0.0702,0.28303,0.01781,0.00263,0.01059,12.87613,2.95269,0.4356,1.75634
0.26961,0.44955,0.0694,0.27302,0.01683,0.0026,0.01022,13.10552,2.89003,0.44618,1.75517
0.27433,0.40673,0.06875,0.26338,0.01522,0.00257,0.00986,13.3349,2.70707,0.4576,1.75297
0.27905,0.41614,0.06815,0.25405,0.01558,0.00255,0.00951,13.56429,2.86579,0.46931,1.74951
0.28377,0.40148,0.07312,0.24496,0.01503,0.00274,0.00917,13.79367,2.85915,0.52069,1.7445
0.28849,0.36439,0.07065,0.23607,0.01364,0.00264,0.00884,14.02306,2.68206,0.51999,1.73755
0.29321,0.30684,0.06814,0.22731,0.01148,0.00255,0.00851,14.25244,2.33294,0.51807,1.72825
0.29793,0.3063,0.06724,0.21864,0.01146,0.00252,0.00818,14.48183,2.40436,0.52782,1.71627
0.30265,0.26103,0.06635,0.21002,0.00977,0.00248,0.00786,14.71121,2.11444,0.53749,1.70126
0.30737,0.38122,0.0659,0.20141,0.01427,0.00247,0.00754,14.94059,3.18512,0.5506,1.68278
0.31209,0.3658,0.06524,0.19276,0.01369,0.00244,0.00721,15.16998,3.15084,0.56191,1.66033
0.3168,0.41546,0.06483,0.18402,0.01555,0.00243,0.00689,15.39937,3.68766,0.57542,1.63335
0.32152,0.35692,0.06395,0.17514,0.01336,0.00239,0.00656,15.62875,3.26314,0.58465,1.60124
0.32624,0.23877,0.06338,0.16609,0.00894,0.00237,0.00622,15.85814,2.24751,0.5966,1.56334
0.33096,0.30146,0.06305,0.15681,0.01128,0.00236,0.00587,16.08752,2.92029,0.61074,1.51898
0.33568,0.28495,0.06252,0.14725,0.01067,0.00234,0.00551,16.3169,2.83959,0.623,1.4674
0.3404,0.11325,0.06417,0.13737,0.00424,0.0024,0.00514,16.54629,1.16047,0.65756,1.40769
0.34512,0.31128,0.06706,0.12711,0.01165,0.00251,0.00476,16.77568,3.27887,0.70635,1.33895
0.34984,0.34059,0.06826,0.11645,0.01275,0.00255,0.00436,17.00506,3.68641,0.73877,1.26038
0.35456,0.35023,0.06899,0.10534,0.01311,0.00258,0.00394,17.23445,3.89367,0.76705,1.17113
0.35928,0.27557,0.06948,0.09374,0.01031,0.0026,0.00351,17.46383,3.14571,0.79309,1.07011
0.36399,0.30165,0.07622,0.0816,0.01129,0.00285,0.00305,17.69321,3.53453,0.89309,0.95615
0.36871,0.42643,0.08035,0.06888,0.01596,0.00301,0.00258,17.9226,5.12699,0.96607,0.82812
0.37343,0.17604,0.0829,0.05553,0.00659,0.0031,0.00208,18.15198,2.17103,1.02236,0.6849
0.37815,0.40569,0.08675,0.04154,0.01518,0.00325,0.00155,18.38137,5.13056,1.09709,0.52528
0.38287,0.31256,0.08959,0.02684,0.0117,0.00335,0.001,18.61076,4.05201,1.16146,0.34799
0.38759,0.29401,0.09277,0.01142,0.011,0.00347,0.00043,18.84014,3.9061,1.23252,0.1517
0.39231,0.37962,0.0959,-0.00477,0.01421,0.00359,-0.00018,19.06952,5.16706,1.30536,-0.06496
0.39703,0.31771,0.09728,-0.02177,0.01189,0.00364,-0.00081,19.29891,4.42904,1.35613,-0.30346
0.40175,0.23939,0.10007,-0.0396,0.00896,0.00375,-0.00148,19.52829,3.41699,1.42842,-0.56528
0.40647,0.31516,0.10383,-0.05831,0.0118,0.00389,-0.00218,19.75768,4.60479,1.517,-0.852
0.41119,0.27296,0.10723,-0.07793,0.01022,0.00401,-0.00292,19.98706,4.08145,1.60338,-1.16529
0.4159,0.31861,0.11144,-0.0985,0.01193,0.00417,-0.00369,20.21645,4.87389,1.7047,-1.50684
0.42062,0.23019,0.11534,-0.12006,0.00862,0.00432,-0.00449,20.44584,3.60165,1.80471,-1.87846
0.42534,-0.01184,0.11897,-0.14263,-0.00044,0.00445,-0.00534,20.67522,-0.18944,1.90354,-2.28199
0.43006,0.15384,0.12493,-0.16625,0.00576,0.00468,-0.00622,20.9046,2.51626,2.04345,-2.71937
0.43478,0.28221,0.13096,-0.19097,0.01056,0.0049,-0.00715,21.13399,4.71791,2.1894,-3.19263
0.4395,0.36518,0.13782,-0.21682,0.01367,0.00516,-0.00812,21.36337,6.23818,2.35438,-3.70384
0.44422,0.26774,0.13963,-0.24383,0.01002,0.00523,-0.00913,21.59276,4.67245,2.4368,-4.25517
0.44894,0.22061,0.14623,-0.27204,0.00826,0.00547,-0.01018,21.82214,3.93225,2.60642,-4.8489
0.45366,0.21849,0.1546,-0.30149,0.00818,0.00579,-0.01128,22.05153,3.97661,2.8138,-5.48731
0.45838,0.3313,0.16553,-0.33221,0.0124,0.0062,-0.01243,22.28091,6.15597,3.07572,-6.17285
0.46309,0.12313,0.17707,-0.36423,0.00461,0.00663,-0.01363,22.5103,2.33533,3.3583,-6.90802
0.46781,0.37453,0.19337,-0.3976,0.01402,0.00724,-0.01488,22.73968,7.24882,3.74265,-7.69538
0.47253,0.15019,0.21129,-0.43235,0.00562,0.00791,-0.01618,22.96907,2.96569,4.17223,-8.53761
0.47725,0.56957,0.24159,-0.46852,0.02132,0.00904,-0.01754,23.19845,11.47299,4.86642,-9.4375
0.48197,0.43733,0.28113,-0.50614,0.01637,0.01052,-0.01894,23.42784,8.98431,5.77538,-10.39786
0.48669,0.61368,0.35113,-0.54524,0.02297,0.01314,-0.02041,23.65722,12.8552,7.3555,-11.42165
0.49141,0.59753,0.51719,-0.58587,0.02237,0.01936,-0.02193,23.88661,12.76089,11.04522,-12.51193
0.49518,0.47504,2.25618,-0.6195,0.01778,0.08445,-0.02319,24.07011,10.30137,48.92622,-13.4341