Folder: supportingdata/2025/starling_2025/figures/experimental_comparison/saxs_scattering/experiment/n_fatz1

Note: 2025/starling_2025/figures/experimental_comparison/saxs_scattering/experiment/readme.md
# About

This directory contains scattering data and their reanalysis using the (wonderful) MFF of [Riback et al.](https://sosnick.uchicago.edu/SAXSonIDPs/).

This means for every SAXS piece of SAXS data here, we:

1. Verified it was of high quality
2. Re-evaluated it in a CONSISTENT (and in our experience, very robust) way


We feel this sets the highest bar for consistent, high-quality experimental data to compare against. We also hope this is generally useful for the community in the future.

### Files

* `sequences.fasta` - the sequences for all the proteins in this directory (53 proteins)
* `mff_analysis_all.csv` - a CSV file we 53 entries with three columns (name, $R_g$ value, $R_g$ error), as calculated for each scattering data directly using the [Molecular Form Factor](https://sosnick.uchicago.edu/SAXSonIDPs/). The Rg/error values here are summaries; for EACH entry, the full MFF output is in the `mff_out.csv` file in each directory.


### Subdirectories
* Each subdirectory (e.g., `alpha_syn`) contains a set of files:
	* `<filename>.dat` (or something like this), which is the original scattering data. If no `_clean.dat` file (described below) is present, this is the file that will be used for the scattering data.
	* `SASD<ID>.dat` - [optional] - some of the files have the original [SASBDB](https://www.sasbdb.org/) scattering data,
	* `<sequence-name>_clean.dat` - the final, cleaned scattering data in a self-consistent format, which, _if available_ will be the scattering data to use. 
	* `mff_out.csv` - full output from the MFF analysis of the cleaned scattering data.

File: mff_out.csv
#File Plotted Below: n_fatz1_clean.dat,,,,,,,,,,
,,,,,,,,,,
    #Fit from 0.01-0.15 with polymer MFF,,,,,,,,,,
#Initial search parameter for I0 = 0.00789763,,,,,,,,,,
#Initial search parameter for Rg = 30,,,,,,,,,,
#Initial search parameter for nu = 0.499881,,,,,,,,,,
#BestFit for I0 = 0.00831 +- 0.00001,,,,,,,,,,
#BestFit for I(0)/I0 = 1.00000 +- 0.00151,,,,,,,,,,
#BestFit for Rg = 36.45000 +- 0.05514,,,,,,,,,,
#BestFit for nu = 0.51939 +- 0.00164,,,,,,,,,,
#BestFit reduced chisquared = 0.90214,,,,,,,,,,
#-------------,,,,,,,,,,
#-------------,,,,,,,,,,
,,,,,,,,,,
    #q,I(q),Error,fit,I(q)/I0,Error/I0,fit/I0,qRg,((qRg)^2)I(q)/I0,((qRg)^2)*Error/I0,((qRg)^2)*fit/I0
0.00768,0.00803,0.00019,0.00809,0.96643,0.02266,0.97425,0.27996,0.07575,0.00178,0.07636
0.01156,0.00798,0.00011,0.00782,0.96105,0.01273,0.94134,0.42125,0.17054,0.00226,0.16704
0.01543,0.00739,0.00008,0.00746,0.88924,0.00964,0.8982,0.56255,0.28141,0.00305,0.28424
0.01931,0.00705,0.00007,0.00704,0.84873,0.00862,0.84719,0.70384,0.42046,0.00427,0.41969
0.02319,0.00653,0.00007,0.00657,0.78661,0.00816,0.79066,0.84513,0.56184,0.00583,0.56473
0.02706,0.006,0.00006,0.00607,0.72187,0.00716,0.73099,0.98643,0.70241,0.00697,0.71128
0.03094,0.00563,0.00005,0.00557,0.67738,0.00637,0.6704,1.12772,0.86147,0.00811,0.85259
0.03482,0.0051,0.00005,0.00507,0.61367,0.00607,0.61054,1.26902,0.98826,0.00978,0.98322
0.03869,0.00463,0.00005,0.00459,0.55725,0.00602,0.55282,1.41031,1.10836,0.01197,1.09955
0.04257,0.00419,0.00005,0.00414,0.50509,0.00584,0.49865,1.5516,1.21599,0.01406,1.2005
0.04644,0.00375,0.00005,0.00373,0.45199,0.00609,0.44889,1.6929,1.29537,0.01744,1.28648
0.05032,0.00332,0.00005,0.00335,0.39978,0.00563,0.40359,1.83419,1.34495,0.01895,1.35779
0.0542,0.003,0.00005,0.00301,0.36132,0.0055,0.36274,1.97548,1.41007,0.02146,1.4156
0.05807,0.00271,0.00004,0.00271,0.32682,0.00528,0.32629,2.11678,1.4644,0.02367,1.46201
0.06195,0.00247,0.00004,0.00244,0.29744,0.00515,0.29395,2.25807,1.51663,0.02625,1.49881
0.06583,0.00223,0.00004,0.0022,0.26796,0.00499,0.26532,2.39937,1.54262,0.02874,1.52745
0.0697,0.00201,0.00004,0.00199,0.24253,0.0049,0.24001,2.54066,1.56549,0.03161,1.54928
0.07358,0.0018,0.00004,0.00181,0.21685,0.00477,0.21765,2.68195,1.55974,0.03429,1.56554
0.07746,0.00159,0.00004,0.00164,0.19124,0.00468,0.1979,2.82325,1.52434,0.03729,1.5774
0.08133,0.00148,0.00004,0.0015,0.17794,0.00503,0.18043,2.96454,1.56384,0.0442,1.58568
0.08521,0.00136,0.00004,0.00137,0.16386,0.00486,0.16491,3.10584,1.58066,0.04691,1.5908
0.08908,0.00128,0.00004,0.00126,0.15429,0.00461,0.15112,3.24713,1.62678,0.04858,1.59338
0.09296,0.00117,0.00004,0.00115,0.1409,0.00482,0.13884,3.38842,1.61769,0.05534,1.59406
0.09684,0.00112,0.00004,0.00106,0.13441,0.00459,0.12787,3.52972,1.67466,0.05713,1.59313
0.10071,0.00101,0.00004,0.00098,0.12147,0.0044,0.11804,3.67103,1.63701,0.05928,1.59071
0.10459,0.00091,0.00004,0.00091,0.10962,0.00431,0.10921,3.81231,1.59314,0.06259,1.58727
0.10847,0.00084,0.00004,0.00084,0.10165,0.00423,0.10128,3.95359,1.58881,0.06608,1.58306
0.11234,0.00077,0.00003,0.00078,0.09222,0.00415,0.09411,4.0949,1.54636,0.06965,1.57811
0.11622,0.0007,0.00003,0.00073,0.08438,0.00409,0.08763,4.23618,1.51423,0.07348,1.57256
0.1201,0.00068,0.00003,0.00068,0.08227,0.00402,0.08176,4.3775,1.57646,0.07694,1.56666
0.12397,0.0006,0.00003,0.00063,0.07274,0.00393,0.07642,4.51878,1.48524,0.08027,1.56047
0.12785,0.00068,0.00003,0.00059,0.0817,0.00388,0.07156,4.66006,1.77413,0.08417,1.55394
0.13173,0.00053,0.00003,0.00056,0.06327,0.00384,0.06712,4.80138,1.45865,0.08852,1.54723
0.1356,0.00055,0.00003,0.00052,0.06643,0.00376,0.06306,4.94266,1.62284,0.09197,1.54045
0.13948,0.00051,0.00003,0.00049,0.06106,0.00401,0.05933,5.08394,1.57825,0.10376,1.53356
0.14335,0.00044,0.00003,0.00046,0.05314,0.00398,0.05591,5.22525,1.45102,0.1086,1.52658
0.14723,0.00044,0.00003,0.00044,0.05247,0.00379,0.05276,5.36653,1.51104,0.10907,1.5196
0.15111,0.00044,0.00003,0.00041,0.0528,0.00369,0.04986,5.50785,1.60171,0.11208,1.51264
0.15498,0.00042,0.00003,0.00039,0.0501,0.00366,0.04718,5.64913,1.59887,0.11666,1.50563
0.15886,0.00041,0.00003,0.00037,0.04917,0.00359,0.0447,5.79041,1.64852,0.12044,1.49865
0.16274,0.0004,0.00003,0.00035,0.04801,0.00352,0.0424,5.93173,1.68936,0.12396,1.49174
0.16661,0.00035,0.00003,0.00033,0.04191,0.00346,0.04026,6.07301,1.54558,0.12757,1.48488
0.17049,0.0003,0.00003,0.00032,0.03588,0.00342,0.03828,6.21429,1.38561,0.1321,1.47808
0.17436,0.00033,0.00003,0.0003,0.0393,0.0034,0.03643,6.3556,1.58736,0.1373,1.47137
0.17824,0.00027,0.00003,0.00029,0.03213,0.00335,0.0347,6.49688,1.35639,0.14138,1.46475
0.18212,0.00033,0.00003,0.00027,0.03938,0.00334,0.03309,6.6382,1.73535,0.14707,1.45817
0.18599,0.00028,0.00003,0.00026,0.03377,0.00334,0.03158,6.77948,1.55199,0.1533,1.45167
0.18987,0.00029,0.00003,0.00025,0.03456,0.00329,0.03017,6.92076,1.65518,0.15751,1.44528
0.19375,0.00023,0.00003,0.00024,0.0278,0.00324,0.02885,7.06208,1.38633,0.16167,1.43899
0.19762,0.00022,0.00003,0.00023,0.02691,0.00342,0.02761,7.20336,1.39641,0.17772,1.43281
0.2015,0.00022,0.00003,0.00022,0.02659,0.00349,0.02645,7.34464,1.4346,0.18841,1.42676
0.20538,0.00027,0.00003,0.00021,0.03221,0.0033,0.02535,7.48596,1.80504,0.18483,1.42084
0.20925,0.00022,0.00003,0.0002,0.02681,0.00326,0.02432,7.62724,1.55957,0.18958,1.41503
0.21313,0.00021,0.00003,0.00019,0.02532,0.00321,0.02335,7.76855,1.52783,0.19349,1.40933
0.21701,0.00018,0.00003,0.00019,0.0222,0.00316,0.02244,7.90983,1.38871,0.19762,1.40377
0.22088,0.00019,0.00003,0.00018,0.02296,0.00313,0.02157,8.05111,1.48825,0.2032,1.39832
0.22476,0.00019,0.00003,0.00017,0.02276,0.00311,0.02075,8.19243,1.52736,0.2088,1.39297
0.22863,0.00019,0.00003,0.00017,0.02291,0.00306,0.01998,8.33371,1.59078,0.21264,1.38775
0.23251,0.00016,0.00003,0.00016,0.01944,0.00311,0.01925,8.47499,1.3962,0.2236,1.38265
0.23639,0.0002,0.00003,0.00015,0.02414,0.00308,0.01856,8.61631,1.79183,0.22881,1.37767
0.24026,0.00014,0.00003,0.00015,0.01723,0.00303,0.0179,8.75759,1.32138,0.23233,1.37281
0.24414,0.00017,0.00002,0.00014,0.02039,0.00299,0.01728,8.8989,1.61508,0.23678,1.36809
0.24802,0.00019,0.00002,0.00014,0.02276,0.00298,0.01668,9.04018,1.86005,0.24361,1.36351
0.25189,0.00015,0.00002,0.00013,0.01794,0.00297,0.01612,9.18146,1.51251,0.25004,1.35906
0.25577,0.00013,0.00003,0.00013,0.0162,0.00313,0.01559,9.32278,1.40789,0.27184,1.35475
0.25965,0.00018,0.00003,0.00013,0.0213,0.00321,0.01508,9.46406,1.90746,0.28759,1.35055
0.26352,0.00017,0.00003,0.00012,0.02023,0.00306,0.01459,9.60534,1.86632,0.28251,1.34645
0.2674,0.00021,0.00002,0.00012,0.02501,0.00298,0.01413,9.74666,2.37541,0.28317,1.34243
0.27127,0.00016,0.00002,0.00011,0.01915,0.00295,0.01369,9.88794,1.87245,0.28824,1.33853
0.27515,0.00012,0.00002,0.00011,0.01479,0.00292,0.01327,10.02925,1.48766,0.2939,1.33474
0.27903,0.00014,0.00002,0.00011,0.01689,0.0029,0.01287,10.17053,1.74678,0.30046,1.33107
0.2829,0.00015,0.00002,0.0001,0.01853,0.00289,0.01248,10.31181,1.97023,0.30725,1.3275
0.28678,0.00011,0.00002,0.0001,0.01371,0.00286,0.01212,10.45313,1.49859,0.31292,1.32402
0.29066,0.00018,0.00002,0.0001,0.0218,0.00285,0.01177,10.59441,2.44687,0.31947,1.3206
0.29453,0.0001,0.00002,0.00009,0.01155,0.00284,0.01143,10.73569,1.33081,0.32722,1.31724
0.29841,0.00015,0.00002,0.00009,0.01772,0.00281,0.01111,10.87701,2.09665,0.33301,1.31395
0.30229,0.00012,0.00002,0.00009,0.01497,0.00279,0.0108,11.01829,1.81708,0.33909,1.31075
0.30616,0.00012,0.00002,0.00009,0.01415,0.00278,0.0105,11.1596,1.76277,0.34621,1.30765
0.31004,0.00012,0.00002,0.00008,0.01489,0.00277,0.01022,11.30088,1.90102,0.35423,1.30465
0.31391,0.00011,0.00002,0.00008,0.01341,0.0029,0.00994,11.44217,1.75546,0.37936,1.30179
0.31779,0.0001,0.00002,0.00008,0.01201,0.00298,0.00968,11.58348,1.61114,0.39964,1.29908
0.32167,0.00009,0.00002,0.00008,0.01031,0.00286,0.00943,11.72476,1.4179,0.39344,1.29651
0.32554,0.00007,0.00002,0.00008,0.00846,0.00282,0.00919,11.86604,1.19107,0.39648,1.29407
0.32942,0.0001,0.00002,0.00007,0.01223,0.00278,0.00896,12.00736,1.7627,0.40027,1.29173
0.3333,0.00008,0.00002,0.00007,0.00923,0.00277,0.00874,12.14864,1.36185,0.40928,1.28946
0.33717,0.00011,0.00002,0.00007,0.01301,0.00275,0.00852,12.28996,1.96562,0.41492,1.28725
0.34105,0.0001,0.00002,0.00007,0.01226,0.00271,0.00832,12.43124,1.89423,0.41938,1.28512
0.34493,0.00014,0.00002,0.00007,0.01718,0.0027,0.00812,12.57252,2.71546,0.42709,1.28306
0.3488,0.00014,0.00002,0.00007,0.01644,0.00269,0.00793,12.71383,2.65675,0.43477,1.28103
0.35268,0.00007,0.00002,0.00006,0.00872,0.00269,0.00774,12.85511,1.44102,0.4449,1.27897
0.35655,0.00011,0.00002,0.00006,0.01276,0.00268,0.00756,12.99639,2.15485,0.45278,1.27682
0.36043,0.00011,0.00002,0.00006,0.0133,0.00268,0.00738,13.13771,2.29474,0.46239,1.2745
0.36431,0.00011,0.00002,0.00006,0.01274,0.00267,0.00721,13.27899,2.24689,0.47046,1.27199
0.36818,0.0001,0.00002,0.00006,0.01166,0.00268,0.00705,13.42031,2.10011,0.48334,1.26926
0.37206,0.00012,0.00002,0.00006,0.01457,0.00278,0.00689,13.56159,2.67969,0.51213,1.26629
0.37594,0.00009,0.00002,0.00006,0.01123,0.0029,0.00673,13.70287,2.10872,0.54391,1.26304
0.37981,0.00011,0.00002,0.00005,0.01317,0.00281,0.00657,13.84418,2.52463,0.53771,1.25946
0.38369,0.00009,0.00002,0.00005,0.01046,0.00276,0.00642,13.98546,2.04613,0.53962,1.2555
0.38756,0.00012,0.00002,0.00005,0.0144,0.00274,0.00627,14.12674,2.87363,0.54732,1.25109
0.39144,0.00006,0.00002,0.00005,0.00681,0.00272,0.00612,14.26806,1.38699,0.55383,1.24618
0.39532,0.00013,0.00002,0.00005,0.01525,0.00274,0.00598,14.40934,3.16653,0.56794,1.2407
0.3992,0.0001,0.00002,0.00005,0.01228,0.00274,0.00583,14.55066,2.60027,0.58005,1.23459
0.40307,0.00007,0.00002,0.00005,0.00876,0.00274,0.00569,14.69194,1.89189,0.59136,1.22779
0.40695,0.00007,0.00002,0.00005,0.00896,0.00275,0.00555,14.83322,1.97146,0.60452,1.22025
0.41082,0.00008,0.00002,0.00004,0.01023,0.00275,0.0054,14.97453,2.29398,0.61609,1.21192
0.4147,0.00009,0.00002,0.00004,0.01037,0.00273,0.00526,15.11581,2.37036,0.62314,1.20274
0.41858,0.0001,0.00002,0.00004,0.01208,0.00274,0.00512,15.25709,2.81091,0.63752,1.19263
0.42245,0.00009,0.00002,0.00004,0.0112,0.00275,0.00498,15.39841,2.65616,0.65153,1.18149
0.42633,0.00006,0.00002,0.00004,0.00697,0.00276,0.00484,15.53969,1.68345,0.66529,1.16923
0.43021,0.00008,0.00002,0.00004,0.01013,0.00285,0.0047,15.68101,2.49083,0.70037,1.15574
0.43131,0.00009,0.00002,0.00004,0.01143,0.00292,0.00466,15.72136,2.82438,0.72155,1.15166