Folder: supportingdata/2025/starling_2025/figures/experimental_comparison/saxs_scattering/experiment/p53

Note: 2025/starling_2025/figures/experimental_comparison/saxs_scattering/experiment/p53/readme.md
# p53


### Sequence

> MEEPQSDPSVEPPLSQETFSDLWKLLPENNVLSPLPSQAMDDLMLSPDDIEQWFTEDPGPDEAPRMPEAAPPVAPAPAAPTPAAPAPAPSW

### Reference
Wells, M., Tidow, H., Rutherford, T. J., Markwick, P., Jensen, M. R., Mylonas, E., Svergun, D. I., Blackledge, M. & Fersht, A. R. Structure of tumor suppressor p53 and its intrinsically disordered N-terminal transactivation domain. Proc. Natl. Acad. Sci. U. S. A. 105, 5762â€“5767 (2008).


**NB**: Personal communication; should acknowledge and thank Martin and check its ok to share the data.

File: mff_out.csv
#File Plotted Below: clean_p53_NTD_SAXS.dat,,,,,,,,,,
,,,,,,,,,,
    #Fit from 0.01-0.15 with polymer MFF,,,,,,,,,,
#Initial search parameter for I0 = 32.51082,,,,,,,,,,
#Initial search parameter for Rg = 30,,,,,,,,,,
#Initial search parameter for nu = 0.499881,,,,,,,,,,
#BestFit for I0 = 36.92644 +- 0.06685,,,,,,,,,,
#BestFit for I(0)/I0 = 1.00000 +- 0.00181,,,,,,,,,,
#BestFit for Rg = 29.76264 +- 0.04654,,,,,,,,,,
#BestFit for nu = 0.57214 +- 0.00240,,,,,,,,,,
#BestFit reduced chisquared = 1.63344,,,,,,,,,,
#-------------,,,,,,,,,,
#-------------,,,,,,,,,,
,,,,,,,,,,
    #q,I(q),Error,fit,I(q)/I0,Error/I0,fit/I0,qRg,((qRg)^2)I(q)/I0,((qRg)^2)*Error/I0,((qRg)^2)*fit/I0
0.00589,60.593,29.9468,36.58421,1.64091,0.81099,0.99073,0.17539,0.05048,0.02495,0.03048
0.00775,40.3895,6.27703,36.302,1.09378,0.16999,0.98309,0.23056,0.05814,0.00904,0.05226
0.0096,33.5465,3.37011,35.94489,0.90847,0.09127,0.97342,0.28573,0.07417,0.00745,0.07947
0.01145,32.2919,2.01065,35.51796,0.87449,0.05445,0.96186,0.3409,0.10162,0.00633,0.11178
0.01331,33.8866,1.27886,35.02621,0.91768,0.03463,0.94854,0.39607,0.14395,0.00543,0.1488
0.01516,32.475,0.9167,34.47474,0.87945,0.02483,0.93361,0.45123,0.17907,0.00505,0.19009
0.01701,32.1221,0.68491,33.86859,0.86989,0.01855,0.91719,0.5064,0.22308,0.00476,0.23521
0.01887,33.1274,0.53768,33.21279,0.89712,0.01456,0.89943,0.56157,0.28292,0.00459,0.28365
0.02072,32.4357,0.46194,32.5124,0.87839,0.01251,0.88046,0.61674,0.33411,0.00476,0.3349
0.02258,31.0962,0.40044,31.77246,0.84211,0.01084,0.86043,0.67191,0.38018,0.0049,0.38845
0.02443,31.4478,0.3503,30.99799,0.85163,0.00949,0.83945,0.72708,0.45021,0.00501,0.44377
0.02628,29.8224,0.32512,30.19411,0.80762,0.0088,0.81768,0.78225,0.49419,0.00539,0.50035
0.02814,29.2271,0.29945,29.36584,0.7915,0.00811,0.79525,0.83741,0.55505,0.00569,0.55768
0.02999,28.7263,0.27249,28.51821,0.77793,0.00738,0.7723,0.89258,0.61978,0.00588,0.61529
0.03184,27.1588,0.2546,27.65629,0.73548,0.00689,0.74896,0.94775,0.66063,0.00619,0.67273
0.0337,26.8775,0.24193,26.78512,0.72787,0.00655,0.72536,1.00292,0.73212,0.00659,0.7296
0.03555,26.6367,0.22738,25.90937,0.72134,0.00616,0.70165,1.05809,0.80758,0.00689,0.78553
0.0374,25.2613,0.21557,25.03273,0.6841,0.00584,0.67791,1.11326,0.84783,0.00724,0.84016
0.03926,24.2226,0.20771,24.15848,0.65597,0.00562,0.65423,1.16842,0.89554,0.00768,0.89317
0.04111,23.1229,0.19775,23.28992,0.62619,0.00536,0.63071,1.22359,0.93752,0.00802,0.94429
0.04297,22.5082,0.19063,22.43039,0.60954,0.00516,0.60743,1.27876,0.99674,0.00844,0.99329
0.04482,21.4931,0.18514,21.5832,0.58205,0.00501,0.58449,1.33393,1.03568,0.00892,1.04002
0.04667,20.5948,0.17812,20.75163,0.55773,0.00482,0.56197,1.3891,1.07619,0.00931,1.08438
0.04853,20.0379,0.17015,19.9391,0.54264,0.00461,0.53997,1.44427,1.13191,0.00961,1.12632
0.05038,19.4949,0.16652,19.14887,0.52794,0.00451,0.51857,1.49944,1.18697,0.01014,1.1659
0.05223,18.6047,0.16155,18.38378,0.50383,0.00437,0.49785,1.5546,1.21766,0.01057,1.2032
0.05409,17.7284,0.15634,17.64446,0.4801,0.00423,0.47783,1.60977,1.24412,0.01097,1.23823
0.05594,17.1656,0.15342,16.93097,0.46486,0.00415,0.45851,1.66494,1.2886,0.01152,1.27099
0.05779,16.2536,0.15123,16.24334,0.44016,0.0041,0.43988,1.72011,1.30234,0.01212,1.30152
0.05965,15.9288,0.14602,15.58169,0.43137,0.00395,0.42197,1.77528,1.3595,0.01246,1.32987
0.0615,14.9297,0.14422,14.94603,0.40431,0.00391,0.40475,1.83045,1.35465,0.01309,1.35613
0.06336,14.3524,0.1423,14.33643,0.38868,0.00385,0.38824,1.88562,1.38195,0.0137,1.38042
0.06521,13.9456,0.13839,13.75293,0.37766,0.00375,0.37244,1.94078,1.42251,0.01412,1.40285
0.06706,13.1437,0.13603,13.1956,0.35594,0.00368,0.35735,1.99595,1.41801,0.01468,1.42361
0.06892,12.5367,0.13422,12.66433,0.3395,0.00363,0.34296,2.05112,1.42833,0.01529,1.44287
0.07077,12.1082,0.13151,12.15843,0.3279,0.00356,0.32926,2.10629,1.45472,0.0158,1.46075
0.07262,11.618,0.12875,11.67691,0.31463,0.00349,0.31622,2.16146,1.4699,0.01629,1.47735
0.07448,11.3125,0.1273,11.21879,0.30635,0.00345,0.30381,2.21663,1.50524,0.01694,1.49277
0.07633,10.6815,0.12581,10.78311,0.28926,0.00341,0.29202,2.27179,1.49291,0.01758,1.50711
0.07818,10.065,0.12323,10.3689,0.27257,0.00334,0.2808,2.32696,1.47589,0.01807,1.52046
0.08004,9.79355,0.12212,9.97516,0.26522,0.00331,0.27014,2.38213,1.50499,0.01877,1.5329
0.08189,9.47715,0.12087,9.60098,0.25665,0.00327,0.26,2.4373,1.52461,0.01944,1.54453
0.08374,9.08907,0.11769,9.24536,0.24614,0.00319,0.25037,2.49247,1.52912,0.0198,1.55542
0.0856,8.70122,0.11694,8.90736,0.23564,0.00317,0.24122,2.54764,1.52939,0.02055,1.56562
0.08745,8.74,0.11536,8.58612,0.23669,0.00312,0.23252,2.60281,1.60346,0.02116,1.57523
0.08931,8.32884,0.11329,8.28085,0.22555,0.00307,0.22425,2.65797,1.59349,0.02168,1.5843
0.09116,7.64517,0.11263,7.99073,0.20704,0.00305,0.2164,2.71314,1.52404,0.02245,1.59292
0.09301,7.60221,0.11227,7.715,0.20587,0.00304,0.20893,2.76831,1.57773,0.0233,1.60114
0.09487,7.48012,0.10977,7.45283,0.20257,0.00297,0.20183,2.82348,1.61488,0.0237,1.60899
0.09672,7.08145,0.10837,7.20343,0.19177,0.00293,0.19508,2.87865,1.58914,0.02432,1.61651
0.09857,6.73198,0.10814,6.96601,0.18231,0.00293,0.18865,2.93382,1.56917,0.02521,1.62372
0.10043,6.74767,0.10652,6.73979,0.18273,0.00288,0.18252,2.98897,1.63253,0.02577,1.63062
0.10228,6.50808,0.10503,6.52388,0.17624,0.00284,0.17667,3.04415,1.63323,0.02636,1.6372
0.10414,6.39529,0.10504,6.31781,0.17319,0.00284,0.17109,3.09933,1.66364,0.02733,1.64349
0.10599,5.9357,0.10373,6.12124,0.16074,0.00281,0.16577,3.15448,1.59952,0.02795,1.64952
0.10784,6.07965,0.10231,5.93348,0.16464,0.00277,0.16068,3.20966,1.69613,0.02854,1.65535
0.1097,5.72424,0.10188,5.7542,0.15502,0.00276,0.15583,3.26484,1.65236,0.02941,1.66101
0.11155,5.68703,0.10121,5.58303,0.15401,0.00274,0.15119,3.31999,1.69755,0.03021,1.66651
0.1134,5.36256,0.09978,5.41933,0.14522,0.0027,0.14676,3.37517,1.65435,0.03078,1.67186
0.11526,5.34,0.09913,5.26282,0.14461,0.00268,0.14252,3.43032,1.70166,0.03159,1.67707
0.11711,5.22686,0.09877,5.11288,0.14155,0.00267,0.13846,3.4855,1.71963,0.03249,1.68213
0.11896,4.88488,0.09683,4.96915,0.13229,0.00262,0.13457,3.54068,1.6584,0.03287,1.68701
0.12082,4.72314,0.09685,4.83138,0.12791,0.00262,0.13084,3.59583,1.65384,0.03391,1.69174
0.12267,4.65994,0.09757,4.69916,0.1262,0.00264,0.12726,3.65101,1.68217,0.03522,1.69633
0.12452,4.51366,0.09695,4.57239,0.12223,0.00263,0.12382,3.70616,1.67896,0.03606,1.70081
0.12638,4.42552,0.09758,4.45067,0.11985,0.00264,0.12053,3.76134,1.69556,0.03738,1.70519
0.12823,4.33831,0.09836,4.33381,0.11749,0.00266,0.11736,3.81652,1.71127,0.0388,1.7095
0.13009,4.22674,0.09682,4.22163,0.11446,0.00262,0.11433,3.87167,1.7158,0.0393,1.71372
0.13194,4.28291,0.09723,4.11374,0.11598,0.00263,0.1114,3.92685,1.78851,0.0406,1.71786
0.13379,3.92372,0.09726,4.00996,0.10626,0.00263,0.10859,3.98203,1.68489,0.04176,1.72192
0.13565,3.98512,0.09668,3.91008,0.10792,0.00262,0.10589,4.03718,1.75898,0.04267,1.72586
0.1375,3.88884,0.09617,3.81381,0.10531,0.0026,0.10328,4.09236,1.76373,0.04362,1.7297
0.13935,3.5461,0.09668,3.72111,0.09603,0.00262,0.10077,4.14751,1.65192,0.04504,1.73345
0.14121,3.67134,0.09605,3.63174,0.09942,0.0026,0.09835,4.20269,1.75607,0.04594,1.73713
0.14306,3.44936,0.09548,3.54559,0.09341,0.00259,0.09602,4.25787,1.69351,0.04688,1.74075
0.14491,3.50977,0.09622,3.46258,0.09505,0.00261,0.09377,4.31302,1.76809,0.04847,1.74432
0.14677,3.51273,0.09535,3.38245,0.09513,0.00258,0.0916,4.3682,1.81515,0.04927,1.74783
0.14862,3.4639,0.09486,3.30516,0.09381,0.00257,0.08951,4.42335,1.8354,0.05026,1.75129
0.15047,3.13599,0.09472,3.23048,0.08493,0.00257,0.08748,4.47853,1.70337,0.05145,1.75469
0.15233,3.22215,0.09486,3.1583,0.08726,0.00257,0.08553,4.53371,1.79356,0.0528,1.75802
0.15418,3.36599,0.09356,3.08855,0.09115,0.00253,0.08364,4.58886,1.91949,0.05335,1.76127
0.15604,2.96837,0.09371,3.02106,0.08039,0.00254,0.08181,4.64404,1.7337,0.05473,1.76447
0.15789,2.97384,0.09356,2.95579,0.08053,0.00253,0.08005,4.69922,1.77841,0.05595,1.76762
0.15974,3.17634,0.09286,2.89267,0.08602,0.00251,0.07834,4.75437,1.94436,0.05684,1.77071
0.1616,2.96221,0.09297,2.83155,0.08022,0.00252,0.07668,4.80955,1.85562,0.05824,1.77377
0.16345,2.8986,0.09333,2.77242,0.0785,0.00253,0.07508,4.8647,1.85765,0.05981,1.77678
0.1653,2.8261,0.09248,2.71511,0.07653,0.0025,0.07353,4.91988,1.85251,0.06062,1.77975
0.16716,3.08308,0.09181,2.65957,0.08349,0.00249,0.07202,4.97506,2.06654,0.06154,1.78267
0.16901,2.8361,0.09157,2.60574,0.0768,0.00248,0.07057,5.03021,1.94338,0.06274,1.78553
0.17086,2.71936,0.09111,2.55349,0.07364,0.00247,0.06915,5.08539,1.90449,0.06381,1.78832
0.17272,2.53715,0.09024,2.50279,0.06871,0.00244,0.06778,5.14057,1.81565,0.06458,1.79106
0.17457,2.61105,0.09079,2.45362,0.07071,0.00246,0.06645,5.19572,1.90884,0.06637,1.79375
0.17643,2.60564,0.09099,2.40587,0.07056,0.00246,0.06515,5.2509,1.94556,0.06794,1.7964
0.17828,2.75878,0.09045,2.35953,0.07471,0.00245,0.0639,5.30605,2.10341,0.06896,1.799
0.18013,2.62593,0.09001,2.31449,0.07111,0.00244,0.06268,5.36123,2.04397,0.07006,1.80156
0.18199,2.3339,0.09027,2.27074,0.0632,0.00244,0.06149,5.41641,1.85425,0.07172,1.80407
0.18384,2.24814,0.08918,2.22822,0.06088,0.00241,0.06034,5.47156,1.82267,0.0723,1.80653
0.18569,2.54587,0.08915,2.18686,0.06894,0.00241,0.05922,5.52674,2.1059,0.07375,1.80893
0.18755,2.39715,0.08951,2.14663,0.06492,0.00242,0.05813,5.58189,2.02265,0.07552,1.81127
0.1894,2.42116,0.08871,2.10746,0.06557,0.0024,0.05707,5.63707,2.0835,0.07634,1.81355
0.19126,2.20267,0.08815,2.06935,0.05965,0.00239,0.05604,5.69225,1.93277,0.07735,1.81579
0.19311,2.34459,0.08829,2.03227,0.06349,0.00239,0.05504,5.7474,2.09736,0.07898,1.81797
0.19473,2.44529,0.08881,2.00062,0.06622,0.00241,0.05418,5.79568,2.22434,0.08079,1.81985