Folder: supportingdata/2025/starling_2025/figures/experimental_comparison/saxs_scattering/experiment/pol2_ctd

Note: 2025/starling_2025/figures/experimental_comparison/saxs_scattering/experiment/pol2_ctd/readme.md
# About

### From

Gibbs, E. B., Lu, F., Portz, B., Fisher, M. J., Medellin, B. P., Laremore, T. N., Zhang, Y. J., Gilmour, D. S. & Showalter, S. A. Phosphorylation induces sequence-specific conformational switches in the RNA polymerase II C-terminal domain. Nat. Commun. 8, 15233 (2017).


### Sequence


	>pol2_ctd
	YSPGNAYSPSSSNYSPNSPSYSPTSPSYSPSSPSYSPTSPCYSPTSPSYSPTSPNYTPVTPSYSPTSPNYSASPQ

File: mff_out.csv
#File Plotted Below: pol2_ctd_clean.dat,,,,,,,,,,
,,,,,,,,,,
    #Fit from 0.01-0.15 with polymer MFF,,,,,,,,,,
#Initial search parameter for I0 = 0.0151849,,,,,,,,,,
#Initial search parameter for Rg = 30,,,,,,,,,,
#Initial search parameter for nu = 0.499881,,,,,,,,,,
#BestFit for I0 = 0.01543 +- 0.00005,,,,,,,,,,
#BestFit for I(0)/I0 = 1.00000 +- 0.00296,,,,,,,,,,
#BestFit for Rg = 26.04113 +- 0.08156,,,,,,,,,,
#BestFit for nu = 0.60280 +- 0.00174,,,,,,,,,,
#BestFit reduced chisquared = 2.14196,,,,,,,,,,
#-------------,,,,,,,,,,
#-------------,,,,,,,,,,
,,,,,,,,,,
    #q,I(q),Error,fit,I(q)/I0,Error/I0,fit/I0,qRg,((qRg)^2)I(q)/I0,((qRg)^2)*Error/I0,((qRg)^2)*fit/I0
0.00752,0.01616,0.00052,0.01525,1.04705,0.03381,0.9881,0.19588,0.04017,0.0013,0.03791
0.01042,0.01551,0.0003,0.01506,1.00541,0.01965,0.97616,0.27122,0.07396,0.00145,0.07181
0.01331,0.01531,0.00026,0.01482,0.99212,0.01661,0.96066,0.34656,0.11916,0.00199,0.11538
0.0162,0.0148,0.00023,0.01454,0.95914,0.01459,0.94192,0.4219,0.17072,0.0026,0.16766
0.01909,0.01458,0.00019,0.0142,0.94478,0.01233,0.92031,0.49723,0.23359,0.00305,0.22754
0.02199,0.0139,0.00016,0.01383,0.90108,0.01029,0.89616,0.57257,0.29541,0.00337,0.2938
0.02488,0.01374,0.00015,0.01342,0.89062,0.00945,0.86981,0.64791,0.37387,0.00397,0.36513
0.02777,0.01312,0.00013,0.01299,0.84998,0.00862,0.8416,0.72325,0.44461,0.00451,0.44023
0.03067,0.01221,0.00012,0.01253,0.79101,0.00794,0.81188,0.79858,0.50445,0.00506,0.51776
0.03356,0.01206,0.00011,0.01205,0.7815,0.00741,0.78099,0.87392,0.59685,0.00566,0.59647
0.03645,0.01134,0.00011,0.01156,0.73514,0.00723,0.74927,0.94925,0.66242,0.00652,0.67515
0.03934,0.01095,0.00011,0.01107,0.70985,0.00688,0.71706,1.02459,0.74519,0.00723,0.75275
0.04224,0.01047,0.0001,0.01057,0.67841,0.00667,0.68466,1.09992,0.82076,0.00807,0.82832
0.04513,0.00981,0.0001,0.01007,0.63569,0.00665,0.65233,1.17525,0.87803,0.00918,0.901
0.04802,0.00954,0.0001,0.00957,0.61812,0.00641,0.62028,1.25058,0.96672,0.01003,0.97009
0.05092,0.0089,0.0001,0.00909,0.57694,0.0062,0.58875,1.32591,1.0143,0.01091,1.03506
0.05381,0.00835,0.00009,0.00861,0.54082,0.00593,0.55799,1.40124,1.06189,0.01164,1.0956
0.0567,0.00821,0.00009,0.00815,0.53205,0.00607,0.52821,1.47657,1.16001,0.01323,1.15164
0.05959,0.00767,0.0001,0.00771,0.4969,0.00652,0.49965,1.5519,1.19672,0.01571,1.20336
0.06249,0.0075,0.0001,0.00729,0.48576,0.00649,0.4724,1.62723,1.28623,0.01719,1.25085
0.06538,0.00673,0.0001,0.00689,0.43603,0.00652,0.44646,1.70255,1.26391,0.0189,1.29415
0.06827,0.00644,0.0001,0.00651,0.41713,0.00631,0.42184,1.77788,1.31847,0.01995,1.33338
0.07116,0.00603,0.0001,0.00615,0.39076,0.00633,0.39855,1.8532,1.34201,0.02174,1.36877
0.07406,0.00565,0.0001,0.00581,0.3661,0.00648,0.3766,1.92852,1.3616,0.02409,1.40064
0.07695,0.00546,0.0001,0.00549,0.35368,0.00662,0.35598,2.00384,1.42014,0.02659,1.42941
0.07984,0.00524,0.0001,0.0052,0.33939,0.00673,0.33671,2.07916,1.46717,0.02907,1.45555
0.08273,0.0049,0.0001,0.00492,0.31727,0.00671,0.3187,2.15448,1.47271,0.03113,1.47935
0.08563,0.00506,0.0001,0.00466,0.32816,0.00659,0.30191,2.22979,1.6316,0.03278,1.50109
0.08852,0.00447,0.0001,0.00442,0.2895,0.0068,0.28625,2.30511,1.53825,0.03611,1.52101
0.09141,0.00408,0.00011,0.00419,0.26466,0.00691,0.27166,2.38042,1.49969,0.03915,1.53935
0.0943,0.00409,0.00011,0.00398,0.26527,0.00687,0.25807,2.45573,1.59975,0.04142,1.55634
0.09719,0.0039,0.00011,0.00379,0.25259,0.00694,0.24541,2.53104,1.61813,0.04445,1.57215
0.10009,0.00354,0.0001,0.00361,0.22922,0.0067,0.23362,2.60634,1.55706,0.04553,1.58696
0.10298,0.00347,0.0001,0.00344,0.22496,0.00649,0.22263,2.68165,1.61776,0.04669,1.60097
0.10587,0.00325,0.0001,0.00328,0.21046,0.00668,0.21239,2.75695,1.5997,0.05078,1.61433
0.10876,0.00314,0.00011,0.00313,0.20369,0.00689,0.20284,2.83225,1.63396,0.05523,1.62714
0.11165,0.00305,0.0001,0.00299,0.19736,0.00665,0.19393,2.90755,1.66843,0.05625,1.63948
0.11454,0.00274,0.0001,0.00286,0.17752,0.0068,0.1856,2.98285,1.57949,0.06054,1.65135
0.11744,0.00287,0.0001,0.00274,0.18606,0.00656,0.17779,3.05814,1.74009,0.06132,1.66271
0.12033,0.0027,0.00011,0.00263,0.17484,0.00685,0.17046,3.13343,1.71665,0.06722,1.67363
0.12322,0.00256,0.0001,0.00252,0.16603,0.00679,0.16358,3.20872,1.70942,0.06988,1.68422
0.12611,0.00245,0.0001,0.00242,0.15871,0.00679,0.15713,3.28401,1.71163,0.07326,1.69455
0.129,0.0024,0.00011,0.00233,0.15538,0.00684,0.15106,3.35929,1.75346,0.07724,1.70467
0.13189,0.00242,0.0001,0.00224,0.15683,0.00672,0.14535,3.43458,1.85,0.07932,1.71459
0.13478,0.00248,0.0001,0.00216,0.16081,0.00675,0.13997,3.50986,1.98099,0.08321,1.72428
0.13767,0.00208,0.00011,0.00208,0.1349,0.00682,0.13489,3.58513,1.73386,0.0877,1.73372
0.14056,0.00209,0.0001,0.00201,0.13561,0.0065,0.13009,3.66041,1.81694,0.08709,1.74296
0.14345,0.00196,0.0001,0.00194,0.12684,0.00662,0.12555,3.73568,1.77005,0.09245,1.75207
0.14634,0.00172,0.0001,0.00187,0.11125,0.00657,0.12126,3.81095,1.61577,0.09539,1.76108
0.14923,0.0021,0.0001,0.00181,0.13621,0.0067,0.1172,3.88621,2.05721,0.10122,1.77002
0.15212,0.00171,0.0001,0.00175,0.11098,0.00679,0.11335,3.96148,1.74161,0.10658,1.77889
0.15501,0.00177,0.0001,0.00169,0.11452,0.00674,0.1097,4.03674,1.86611,0.10975,1.78764
0.1579,0.00152,0.0001,0.00164,0.0986,0.00667,0.10624,4.112,1.66719,0.11271,1.7963
0.16079,0.00154,0.0001,0.00159,0.1,0.00664,0.10294,4.18725,1.75326,0.11637,1.8049
0.16368,0.00142,0.0001,0.00154,0.0923,0.00661,0.09981,4.2625,1.67696,0.12013,1.81348
0.16657,0.00147,0.0001,0.00149,0.09536,0.00679,0.09684,4.33775,1.79424,0.12767,1.82207
0.16946,0.00146,0.0001,0.00145,0.0946,0.00664,0.094,4.413,1.84228,0.12926,1.83068
0.17235,0.00152,0.0001,0.00141,0.09847,0.00671,0.09131,4.48824,1.98367,0.13523,1.8393
0.17524,0.0014,0.0001,0.00137,0.09058,0.00633,0.08873,4.56348,1.88627,0.13173,1.84792
0.17813,0.00173,0.0001,0.00133,0.11224,0.00647,0.08628,4.63871,2.4151,0.13927,1.85655
0.18102,0.00132,0.0001,0.0013,0.0855,0.00659,0.08394,4.71394,1.89994,0.14636,1.86521
0.18391,0.00148,0.0001,0.00126,0.09588,0.0066,0.0817,4.78917,2.19916,0.15138,1.87391
0.1868,0.00131,0.0001,0.00123,0.08512,0.00666,0.07956,4.8644,2.01405,0.15759,1.88264
0.18969,0.00125,0.0001,0.0012,0.08116,0.00669,0.07752,4.93962,1.98038,0.16327,1.89141
0.19257,0.00117,0.0001,0.00117,0.07609,0.00657,0.07556,5.01483,1.91367,0.16526,1.90017
0.19546,0.00129,0.0001,0.00114,0.08384,0.00663,0.07368,5.09005,2.17222,0.17172,1.9089
0.19835,0.00118,0.0001,0.00111,0.07615,0.0067,0.07188,5.16526,2.03173,0.17875,1.91763
0.20124,0.00113,0.0001,0.00108,0.07303,0.00674,0.07014,5.24046,2.00559,0.18497,1.92634
0.20413,0.0009,0.0001,0.00106,0.05862,0.00664,0.06848,5.31567,1.6563,0.18762,1.93504
0.20701,0.00121,0.0001,0.00103,0.0787,0.00672,0.06688,5.39086,2.28723,0.19525,1.94371
0.2099,0.00112,0.00009,0.00101,0.07285,0.00602,0.06534,5.46606,2.17646,0.18,1.95234
0.21279,0.00096,0.0001,0.00099,0.06205,0.00647,0.06386,5.54125,1.90534,0.19876,1.96089
0.21568,0.00123,0.0001,0.00096,0.07964,0.00646,0.06243,5.61644,2.51225,0.20371,1.96936
0.21856,0.00107,0.0001,0.00094,0.06928,0.00667,0.06105,5.69162,2.24423,0.21611,1.97776
0.22145,0.00087,0.0001,0.00092,0.05666,0.00663,0.05972,5.7668,1.88438,0.22049,1.98606
0.22434,0.00104,0.0001,0.0009,0.06732,0.00673,0.05843,5.84197,2.29766,0.22956,1.99428
0.22722,0.00089,0.0001,0.00088,0.05781,0.00668,0.05719,5.91714,2.02392,0.23395,2.00239
0.23011,0.00091,0.0001,0.00086,0.05917,0.00662,0.05599,5.9923,2.12453,0.23767,2.01038
0.233,0.0009,0.0001,0.00085,0.05852,0.00666,0.05482,6.06746,2.15427,0.2452,2.01823
0.23588,0.00087,0.0001,0.00083,0.05611,0.00671,0.05369,6.14262,2.11709,0.25324,2.02594
0.23877,0.00084,0.0001,0.00081,0.0542,0.00664,0.0526,6.21777,2.09542,0.25659,2.03353
0.24165,0.00085,0.0001,0.0008,0.05485,0.00656,0.05154,6.29292,2.17198,0.2597,2.04102
0.24454,0.00091,0.00009,0.00078,0.05928,0.00581,0.05051,6.36806,2.40401,0.23543,2.04842
0.24742,0.00089,0.0001,0.00076,0.05772,0.00635,0.04952,6.4432,2.3964,0.26362,2.05573
0.25031,0.00084,0.0001,0.00075,0.05423,0.00646,0.04855,6.51833,2.30399,0.2746,2.06297
0.25319,0.0007,0.0001,0.00073,0.0452,0.00656,0.04762,6.59346,1.96482,0.28538,2.07015
0.25608,0.00104,0.0001,0.00072,0.06727,0.00666,0.04671,6.66858,2.99163,0.2961,2.07726
0.25896,0.00082,0.0001,0.00071,0.05326,0.00662,0.04583,6.7437,2.42219,0.30124,2.08432
0.26185,0.0007,0.0001,0.00069,0.04548,0.00662,0.04498,6.81882,2.11454,0.30779,2.09133
0.26473,0.00079,0.0001,0.00068,0.05146,0.00663,0.04415,6.89392,2.44586,0.31512,2.09829
0.26762,0.00087,0.0001,0.00067,0.05631,0.00653,0.04335,6.96903,2.73496,0.31716,2.10521
0.2705,0.0008,0.0001,0.00066,0.05163,0.0066,0.04257,7.04413,2.56166,0.32752,2.11207
0.27338,0.00056,0.0001,0.00065,0.03632,0.00661,0.04181,7.11922,1.84066,0.33499,2.11889
0.27627,0.00059,0.0001,0.00063,0.03837,0.00657,0.04107,7.19431,1.98587,0.34027,2.12566
0.27915,0.00073,0.00011,0.00062,0.04706,0.00696,0.04035,7.26939,2.48699,0.36777,2.13239