Folder: supportingdata/2025/starling_2025/figures/experimental_comparison/saxs_scattering/experiment/prota

Note: 2025/starling_2025/figures/experimental_comparison/saxs_scattering/experiment/readme.md
# About

This directory contains scattering data and their reanalysis using the (wonderful) MFF of [Riback et al.](https://sosnick.uchicago.edu/SAXSonIDPs/).

This means for every SAXS piece of SAXS data here, we:

1. Verified it was of high quality
2. Re-evaluated it in a CONSISTENT (and in our experience, very robust) way


We feel this sets the highest bar for consistent, high-quality experimental data to compare against. We also hope this is generally useful for the community in the future.

### Files

* `sequences.fasta` - the sequences for all the proteins in this directory (53 proteins)
* `mff_analysis_all.csv` - a CSV file we 53 entries with three columns (name, $R_g$ value, $R_g$ error), as calculated for each scattering data directly using the [Molecular Form Factor](https://sosnick.uchicago.edu/SAXSonIDPs/). The Rg/error values here are summaries; for EACH entry, the full MFF output is in the `mff_out.csv` file in each directory.


### Subdirectories
* Each subdirectory (e.g., `alpha_syn`) contains a set of files:
	* `<filename>.dat` (or something like this), which is the original scattering data. If no `_clean.dat` file (described below) is present, this is the file that will be used for the scattering data.
	* `SASD<ID>.dat` - [optional] - some of the files have the original [SASBDB](https://www.sasbdb.org/) scattering data,
	* `<sequence-name>_clean.dat` - the final, cleaned scattering data in a self-consistent format, which, _if available_ will be the scattering data to use. 
	* `mff_out.csv` - full output from the MFF analysis of the cleaned scattering data.

File: mff_out.csv
#File Plotted Below: prota_clean.dat,,,,,,,,,,
,,,,,,,,,,
    #Fit from 0.01-0.15 with polymer MFF,,,,,,,,,,
#Initial search parameter for I0 = 0.0337362,,,,,,,,,,
#Initial search parameter for Rg = 30,,,,,,,,,,
#Initial search parameter for nu = 0.499881,,,,,,,,,,
#BestFit for I0 = 0.03603 +- 0.00006,,,,,,,,,,
#BestFit for I(0)/I0 = 1.00000 +- 0.00174,,,,,,,,,,
#BestFit for Rg = 39.40850 +- 0.07332,,,,,,,,,,
#BestFit for nu = 0.59481 +- 0.00281,,,,,,,,,,
#BestFit reduced chisquared = 0.05963,,,,,,,,,,
#-------------,,,,,,,,,,
#-------------,,,,,,,,,,
,,,,,,,,,,
    #q,I(q),Error,fit,I(q)/I0,Error/I0,fit/I0,qRg,((qRg)^2)I(q)/I0,((qRg)^2)*Error/I0,((qRg)^2)*fit/I0
0.0045,0.03784,0.01514,0.03568,1.05033,0.42019,0.99047,0.17734,0.03303,0.01321,0.03115
0.00751,0.03504,0.00435,0.035,0.97268,0.12078,0.97146,0.29589,0.08516,0.01057,0.08505
0.01052,0.03348,0.00299,0.03401,0.92928,0.08289,0.94388,0.41445,0.15962,0.01424,0.16213
0.01353,0.03238,0.0023,0.03275,0.8987,0.0638,0.90906,0.53301,0.25532,0.01812,0.25826
0.01653,0.03162,0.00195,0.03128,0.87774,0.05422,0.86834,0.65156,0.37263,0.02302,0.36864
0.01954,0.03005,0.00175,0.02965,0.83417,0.04846,0.82307,0.77012,0.49473,0.02874,0.48815
0.02255,0.02855,0.00161,0.02791,0.79259,0.04468,0.77458,0.88867,0.62594,0.03528,0.61172
0.02556,0.02599,0.00148,0.02609,0.72143,0.0412,0.72422,1.00723,0.7319,0.0418,0.73473
0.02857,0.0248,0.00139,0.02425,0.68825,0.03856,0.67323,1.12578,0.87228,0.04887,0.85325
0.03158,0.02277,0.00132,0.02243,0.63193,0.03669,0.6226,1.24434,0.97847,0.0568,0.96402
0.03458,0.02099,0.0013,0.02065,0.58267,0.03605,0.57322,1.3629,1.08231,0.06695,1.06475
0.03759,0.01876,0.00135,0.01895,0.52082,0.03744,0.52601,1.48145,1.14305,0.08216,1.15444
0.0406,0.01657,0.00127,0.01736,0.4598,0.03529,0.48179,1.60001,1.17709,0.09033,1.2334
0.04361,0.01572,0.00123,0.01588,0.43627,0.03414,0.44082,1.71856,1.28852,0.10082,1.30194
0.04662,0.01464,0.00124,0.01452,0.4064,0.0344,0.40311,1.83712,1.3716,0.1161,1.36051
0.04963,0.01303,0.00127,0.01328,0.36167,0.03527,0.3687,1.95568,1.38326,0.1349,1.41017
0.05263,0.01195,0.00129,0.01216,0.33164,0.0358,0.3376,2.07423,1.42688,0.15402,1.45251
0.05564,0.0108,0.0013,0.01116,0.29973,0.036,0.30966,2.19279,1.44118,0.1731,1.48894
0.05865,0.00999,0.00128,0.01025,0.27734,0.03557,0.28461,2.31134,1.48162,0.19003,1.52048
0.06166,0.00903,0.00125,0.00945,0.25067,0.03477,0.26219,2.4299,1.48008,0.20529,1.54807
0.06467,0.00856,0.00125,0.00872,0.23761,0.03468,0.24212,2.54845,1.54318,0.22524,1.57251
0.06768,0.00812,0.00123,0.00808,0.22543,0.0342,0.22417,2.66701,1.60351,0.24327,1.5945
0.07068,0.00728,0.0012,0.0075,0.20216,0.03341,0.2081,2.78557,1.56867,0.25926,1.61473
0.07369,0.00716,0.00119,0.00698,0.19879,0.03292,0.19369,2.90412,1.67657,0.27763,1.6336
0.0767,0.00692,0.00118,0.00651,0.19198,0.03278,0.18073,3.02268,1.75404,0.29952,1.65125
0.07971,0.00634,0.00116,0.00609,0.17603,0.03214,0.16901,3.14123,1.73694,0.31718,1.6677
0.08272,0.00547,0.00114,0.00571,0.15191,0.03175,0.15841,3.25979,1.61423,0.33735,1.68331
0.08573,0.00566,0.00113,0.00536,0.15707,0.03123,0.1488,3.37835,1.79273,0.35641,1.69833
0.08873,0.00448,0.00112,0.00505,0.12448,0.03103,0.14007,3.4969,1.52224,0.3795,1.71281
0.09174,0.00495,0.00115,0.00476,0.1373,0.03186,0.13209,3.61546,1.79471,0.41643,1.72666
0.09475,0.00478,0.00112,0.0045,0.13272,0.03113,0.1248,3.73401,1.85048,0.434,1.74005
0.09776,0.00454,0.0011,0.00426,0.12607,0.0305,0.11812,3.85257,1.87111,0.45276,1.75315
0.10077,0.00426,0.00107,0.00403,0.11819,0.02983,0.11199,3.97112,1.86379,0.47041,1.76602
0.10378,0.00346,0.00106,0.00383,0.09604,0.02935,0.10634,4.08968,1.60626,0.49086,1.77856
0.10678,0.00357,0.00106,0.00364,0.09901,0.02943,0.10112,4.20824,1.75337,0.52124,1.79085
0.10979,0.0033,0.00117,0.00347,0.09166,0.03243,0.09631,4.32679,1.7159,0.60709,1.80303
0.1128,0.00325,0.00113,0.00331,0.09019,0.03141,0.09185,4.44535,1.78234,0.62064,1.81514
0.11581,0.00303,0.00109,0.00316,0.08411,0.03019,0.08772,4.5639,1.75198,0.62894,1.82717
0.11882,0.00296,0.00105,0.00302,0.08229,0.02901,0.08388,4.68246,1.80433,0.63608,1.8391
0.12183,0.00304,0.00102,0.00289,0.08425,0.02828,0.0803,4.80102,1.94183,0.65192,1.85101
0.12484,0.00298,0.00101,0.00277,0.08283,0.02795,0.07697,4.91957,2.00462,0.67643,1.86289
0.12784,0.00253,0.001,0.00266,0.07026,0.02767,0.07386,5.03813,1.78338,0.70226,1.8747
0.13085,0.00278,0.00099,0.00256,0.07726,0.02744,0.07094,5.15668,2.0544,0.7298,1.88637
0.13386,0.00264,0.00098,0.00246,0.07323,0.02714,0.0682,5.27524,2.03777,0.75524,1.89794
0.13687,0.0022,0.00097,0.00236,0.06098,0.02694,0.06563,5.39379,1.77398,0.78362,1.90939
0.13988,0.00177,0.00096,0.00228,0.04926,0.02662,0.06321,5.51235,1.49675,0.80888,1.92067
0.14289,0.00246,0.00094,0.00219,0.06815,0.02619,0.06092,5.63091,2.16082,0.83055,1.93171
0.14589,0.00175,0.00095,0.00212,0.04847,0.02628,0.05876,5.74946,1.60235,0.86871,1.94253
0.1489,0.00219,0.00094,0.00204,0.06077,0.02607,0.05672,5.86802,2.09247,0.89764,1.95312
0.15191,0.00181,0.00093,0.00197,0.05027,0.02578,0.05478,5.98657,1.80147,0.92405,1.96343
0.15492,0.00161,0.00092,0.00191,0.04466,0.02556,0.05295,6.10513,1.66455,0.95284,1.97342
0.15793,0.00163,0.00091,0.00184,0.04531,0.02537,0.0512,6.22369,1.75488,0.98282,1.98312
0.16094,0.00209,0.00091,0.00178,0.05812,0.02515,0.04954,6.34224,2.33779,1.01167,1.99258
0.16394,0.00177,0.0009,0.00173,0.04918,0.02488,0.04796,6.4608,2.05284,1.03864,2.00183
0.16695,0.00184,0.0009,0.00167,0.05096,0.02486,0.04645,6.57935,2.20584,1.07628,2.01089
0.16996,0.00168,0.00088,0.00162,0.04657,0.02456,0.04502,6.69791,2.08926,1.1016,2.0198
0.17297,0.0017,0.00088,0.00157,0.04708,0.02443,0.04366,6.81646,2.18762,1.13505,2.02858
0.17598,0.00145,0.00087,0.00153,0.0402,0.02417,0.04236,6.93502,1.93336,1.16255,2.03725
0.17899,0.00126,0.00086,0.00148,0.03505,0.02393,0.04112,7.05358,1.74359,1.19053,2.0458
0.18199,0.00125,0.00092,0.00144,0.0348,0.02549,0.03994,7.17213,1.79008,1.31142,2.05424
0.185,0.00168,0.00097,0.0014,0.04659,0.02687,0.0388,7.29069,2.47641,1.42843,2.0626
0.18801,0.00164,0.00089,0.00136,0.04545,0.02471,0.03772,7.40924,2.49506,1.35659,2.07086
0.19102,0.00109,0.00087,0.00132,0.03027,0.02403,0.03669,7.5278,1.71547,1.36146,2.07904
0.19403,0.0012,0.00085,0.00129,0.03335,0.0237,0.0357,7.64636,1.94969,1.38575,2.08712
0.19704,0.00096,0.00085,0.00125,0.02667,0.0235,0.03475,7.76491,1.60781,1.41714,2.09512
0.20004,0.00114,0.00084,0.00122,0.03175,0.02324,0.03384,7.88347,1.97301,1.44406,2.10303
0.20305,0.00129,0.00083,0.00119,0.03586,0.02297,0.03297,8.00202,2.29617,1.47083,2.11086
0.20606,0.0007,0.00082,0.00116,0.0195,0.02285,0.03213,8.12058,1.28607,1.5067,2.11858
0.20907,0.0012,0.00082,0.00113,0.03342,0.02277,0.03132,8.23913,2.26869,1.54558,2.12621
0.21208,0.00087,0.00082,0.0011,0.02417,0.02265,0.03055,8.35769,1.68833,1.58213,2.13375
0.21509,0.0008,0.00081,0.00107,0.02231,0.02253,0.0298,8.47625,1.6031,1.61854,2.14121
0.2181,0.00093,0.0008,0.00105,0.0257,0.02223,0.02909,8.5948,1.89871,1.64216,2.14856
0.2211,0.00064,0.0008,0.00102,0.01775,0.02222,0.02839,8.71336,1.3479,1.68702,2.15582
0.22411,0.0007,0.00079,0.001,0.01931,0.02195,0.02773,8.83191,1.50643,1.71193,2.16297
0.22712,0.00069,0.00079,0.00098,0.01904,0.02186,0.02709,8.95047,1.52509,1.75135,2.17
0.23013,0.00094,0.00079,0.00095,0.02598,0.02201,0.02647,9.06903,2.13675,1.81054,2.17689
0.23314,0.00112,0.00085,0.00093,0.0311,0.02358,0.02587,9.18758,2.62528,1.99049,2.18365
0.23615,0.00083,0.00087,0.00091,0.0231,0.02403,0.02529,9.30614,2.00068,2.08106,2.19027
0.23915,0.00077,0.00087,0.00089,0.0213,0.02428,0.02473,9.42469,1.89206,2.15623,2.19677
0.24216,0.00072,0.00088,0.00087,0.02006,0.02451,0.02419,9.54325,1.82721,2.23254,2.20313
0.24517,0.00047,0.00089,0.00085,0.01313,0.02471,0.02367,9.6618,1.22535,2.30692,2.20937
0.24818,0.00032,0.00089,0.00083,0.00901,0.0248,0.02316,9.78036,0.86207,2.37266,2.21549
0.25119,0.00082,0.0009,0.00082,0.02284,0.02493,0.02267,9.89892,2.23782,2.44255,2.22149
0.2542,0.00059,0.0009,0.0008,0.01644,0.02501,0.0222,10.01747,1.64984,2.5099,2.22736
0.2572,0.00076,0.00103,0.00078,0.02116,0.02849,0.02174,10.13603,2.1744,2.92741,2.23311
0.26021,0.00064,0.00109,0.00077,0.01783,0.03027,0.02129,10.25458,1.87469,3.18291,2.23876
0.26322,0.00068,0.00113,0.00075,0.0188,0.03141,0.02086,10.37314,2.02297,3.38019,2.24431
0.26623,0.00065,0.00117,0.00074,0.01802,0.03253,0.02044,10.4917,1.98385,3.5808,2.24979
0.26924,0.00025,0.00122,0.00072,0.007,0.03387,0.02003,10.61025,0.78772,3.81259,2.25521
0.27225,0.00087,0.00125,0.00071,0.0241,0.03466,0.01964,10.72881,2.77414,3.98934,2.26058
0.27525,0.00062,0.00129,0.00069,0.01734,0.03567,0.01926,10.84736,2.03999,4.19728,2.26588
0.27826,0.00081,0.00133,0.00068,0.0224,0.03698,0.01889,10.96592,2.69394,4.44727,2.27111
0.28127,0.00019,0.00136,0.00067,0.00541,0.03785,0.01853,11.08447,0.66476,4.6505,2.27627
0.28428,0.00051,0.0014,0.00065,0.01413,0.03899,0.01818,11.20303,1.77299,4.89369,2.28135
0.28729,0.0006,0.00144,0.00064,0.01669,0.03999,0.01784,11.32159,2.139,5.12619,2.28633
0.2903,0.00066,0.00149,0.00063,0.01846,0.04148,0.01751,11.44014,2.41559,5.42938,2.29123
0.2933,0.00065,0.00153,0.00062,0.01815,0.04256,0.01719,11.5587,2.42457,5.68599,2.29602
0.29631,0.0006,0.00157,0.00061,0.01669,0.04368,0.01687,11.67725,2.2759,5.95615,2.30071
0.29932,-0.00063,0.00166,0.0006,-0.0175,0.04611,0.01657,11.79581,-2.4344,6.4163,2.30529
0.30233,0.00045,0.00173,0.00059,0.0125,0.04792,0.01627,11.91436,1.77427,6.80301,2.30976
0.30534,0.00078,0.00181,0.00058,0.0217,0.05037,0.01598,12.03292,3.1417,7.29263,2.31411
0.30835,0.00032,0.00188,0.00057,0.00885,0.05227,0.0157,12.15148,1.30656,7.71834,2.31838
0.31135,0.0003,0.00198,0.00056,0.00822,0.05495,0.01543,12.27003,1.23682,8.27355,2.32262
0.31436,0.00013,0.00209,0.00055,0.00366,0.05795,0.01516,12.38859,0.56237,8.89449,2.32693
0.31737,-0.0002,0.00222,0.00054,-0.00551,0.0615,0.0149,12.50714,-0.86264,9.62035,2.33138
0.32038,0.00039,0.00235,0.00053,0.01079,0.06516,0.01465,12.6257,1.71978,10.38676,2.33607
0.32339,-0.00008,0.00255,0.00052,-0.00213,0.07091,0.01441,12.74426,-0.34575,11.51656,2.34102
0.3264,0.00087,0.00273,0.00051,0.02411,0.07578,0.01418,12.86281,3.98978,12.53719,2.34628
0.32941,0.00125,0.00306,0.0005,0.0346,0.08486,0.01396,12.98137,5.83064,14.30011,2.35186
0.33241,0.00085,0.00343,0.00049,0.02352,0.0953,0.01374,13.09992,4.03548,16.35491,2.3578
0.33542,0.0001,0.00412,0.00049,0.00265,0.11432,0.01353,13.21848,0.46253,19.97489,2.36415
0.33843,0.00034,0.00542,0.00048,0.00953,0.15031,0.01333,13.33704,1.69571,26.73605,2.37097
0.34,-0.0005,0.00685,0.00048,-0.01374,0.1901,0.01323,13.39889,-2.46749,34.12906,2.37473