Folder: supportingdata/2025/starling_2025/figures/experimental_comparison/saxs_scattering/experiment/rs

Note: 2025/starling_2025/figures/experimental_comparison/saxs_scattering/experiment/readme.md
# About

This directory contains scattering data and their reanalysis using the (wonderful) MFF of [Riback et al.](https://sosnick.uchicago.edu/SAXSonIDPs/).

This means for every SAXS piece of SAXS data here, we:

1. Verified it was of high quality
2. Re-evaluated it in a CONSISTENT (and in our experience, very robust) way


We feel this sets the highest bar for consistent, high-quality experimental data to compare against. We also hope this is generally useful for the community in the future.

### Files

* `sequences.fasta` - the sequences for all the proteins in this directory (53 proteins)
* `mff_analysis_all.csv` - a CSV file we 53 entries with three columns (name, $R_g$ value, $R_g$ error), as calculated for each scattering data directly using the [Molecular Form Factor](https://sosnick.uchicago.edu/SAXSonIDPs/). The Rg/error values here are summaries; for EACH entry, the full MFF output is in the `mff_out.csv` file in each directory.


### Subdirectories
* Each subdirectory (e.g., `alpha_syn`) contains a set of files:
	* `<filename>.dat` (or something like this), which is the original scattering data. If no `_clean.dat` file (described below) is present, this is the file that will be used for the scattering data.
	* `SASD<ID>.dat` - [optional] - some of the files have the original [SASBDB](https://www.sasbdb.org/) scattering data,
	* `<sequence-name>_clean.dat` - the final, cleaned scattering data in a self-consistent format, which, _if available_ will be the scattering data to use. 
	* `mff_out.csv` - full output from the MFF analysis of the cleaned scattering data.

File: mff_out.csv
#File Plotted Below: rs.dat,,,,,,,,,,
,,,,,,,,,,
    #Fit from 0.01-0.25 with polymer MFF,,,,,,,,,,
#Initial search parameter for I0 = 23.564,,,,,,,,,,
#Initial search parameter for Rg = 30,,,,,,,,,,
#Initial search parameter for nu = 0.499881,,,,,,,,,,
#BestFit for I0 = 23.39318 +- 0.04383,,,,,,,,,,
#BestFit for I(0)/I0 = 1.00000 +- 0.00187,,,,,,,,,,
#BestFit for Rg = 13.63013 +- 0.04040,,,,,,,,,,
#BestFit for nu = 0.45396 +- 0.00453,,,,,,,,,,
#BestFit reduced chisquared = 1.02454,,,,,,,,,,
#-------------,,,,,,,,,,
#-------------,,,,,,,,,,
,,,,,,,,,,
    #q,I(q),Error,fit,I(q)/I0,Error/I0,fit/I0,qRg,((qRg)^2)I(q)/I0,((qRg)^2)*Error/I0,((qRg)^2)*fit/I0
0.00871,4.375,54.7149,23.30175,0.18702,2.33893,0.99609,0.11875,0.00264,0.03298,0.01405
0.01309,27.195,4.26245,23.15783,1.16252,0.18221,0.98994,0.17838,0.03699,0.0058,0.0315
0.01746,22.5245,1.72439,22.95389,0.96287,0.07371,0.98122,0.238,0.05454,0.00418,0.05558
0.02184,22.7175,0.96839,22.69418,0.97112,0.0414,0.97012,0.29763,0.08602,0.00367,0.08593
0.02621,22.4358,0.62393,22.38293,0.95907,0.02667,0.95681,0.35725,0.12241,0.0034,0.12212
0.03058,21.3689,0.47919,22.02437,0.91347,0.02048,0.94149,0.41688,0.15875,0.00356,0.16362
0.03496,21.0117,0.42166,21.62277,0.8982,0.01803,0.92432,0.4765,0.20394,0.00409,0.20987
0.03933,21.3549,0.38234,21.18234,0.91287,0.01634,0.90549,0.53612,0.26239,0.0047,0.26027
0.04371,20.6382,0.369,20.70733,0.88223,0.01577,0.88519,0.59575,0.31312,0.0056,0.31417
0.04808,20.0963,0.34594,20.20199,0.85907,0.01479,0.86358,0.65537,0.36898,0.00635,0.37092
0.05246,19.288,0.34288,19.67053,0.82451,0.01466,0.84087,0.715,0.42151,0.00749,0.42987
0.05683,18.6677,0.33454,19.11721,0.798,0.0143,0.81721,0.77462,0.47883,0.00858,0.49036
0.06121,18.7147,0.32467,18.54627,0.80001,0.01388,0.79281,0.83425,0.55678,0.00966,0.55177
0.06558,18.3722,0.32085,17.96195,0.78537,0.01372,0.76783,0.89387,0.62751,0.01096,0.6135
0.06996,17.6142,0.30431,17.36847,0.75296,0.01301,0.74246,0.9535,0.68456,0.01183,0.67501
0.07433,16.5999,0.29959,16.77008,0.7096,0.01281,0.71688,1.01312,0.72835,0.01314,0.73582
0.0787,16.1087,0.30314,16.17047,0.68861,0.01296,0.69125,1.07275,0.79244,0.01491,0.79548
0.08308,15.9573,0.29874,15.5721,0.68213,0.01277,0.66567,1.13237,0.87468,0.01638,0.85356
0.08745,15.607,0.30302,14.97729,0.66716,0.01295,0.64024,1.192,0.94794,0.0184,0.90969
0.09183,14.4494,0.30189,14.38836,0.61768,0.01291,0.61507,1.25162,0.96762,0.02022,0.96353
0.0962,13.7511,0.29853,13.80759,0.58783,0.01276,0.59024,1.31124,1.01068,0.02194,1.01484
0.10058,13.0029,0.29867,13.23735,0.55584,0.01277,0.56586,1.37086,1.04457,0.02399,1.06341
0.10495,12.4885,0.29938,12.67979,0.53385,0.0128,0.54203,1.4305,1.09243,0.02619,1.10916
0.10933,12.1171,0.29582,12.13746,0.51798,0.01265,0.51885,1.49011,1.15013,0.02808,1.15207
0.1137,11.9436,0.29328,11.61221,0.51056,0.01254,0.49639,1.54975,1.22622,0.03011,1.19219
0.11807,10.5298,0.29279,11.10488,0.45012,0.01252,0.47471,1.60936,1.16584,0.03242,1.22951
0.12245,10.2993,0.29206,10.61522,0.44027,0.01248,0.45377,1.669,1.22639,0.03478,1.26401
0.1271,10.4745,0.32793,10.11447,0.44776,0.01402,0.43237,1.73235,1.34374,0.04207,1.29755
0.13147,9.625,0.29514,9.66151,0.41144,0.01262,0.41301,1.79197,1.32121,0.04051,1.32622
0.13585,8.8757,0.29291,9.22617,0.37941,0.01252,0.3944,1.8516,1.30079,0.04293,1.35215
0.14022,9.0457,0.28808,8.80859,0.38668,0.01231,0.37655,1.91122,1.41245,0.04498,1.37543
0.14459,8.32035,0.28373,8.40866,0.35567,0.01213,0.35945,1.97083,1.38151,0.04711,1.39617
0.14897,8.18195,0.26992,8.02626,0.34976,0.01154,0.3431,2.03047,1.44198,0.04757,1.41454
0.15334,7.47645,0.27451,7.66125,0.3196,0.01173,0.3275,2.09008,1.39616,0.05126,1.43067
0.15772,7.20315,0.27452,7.3129,0.30792,0.01174,0.31261,2.14972,1.42297,0.05423,1.44465
0.16209,7.2549,0.27092,6.98079,0.31013,0.01158,0.29841,2.20933,1.51379,0.05653,1.45659
0.16647,6.3599,0.26801,6.66417,0.27187,0.01146,0.28488,2.26897,1.39964,0.05898,1.46661
0.17084,6.24285,0.26625,6.36262,0.26687,0.01138,0.27199,2.32858,1.44703,0.06171,1.47479
0.17522,6.23245,0.26783,6.0754,0.26642,0.01145,0.25971,2.38822,1.51956,0.0653,1.48127
0.17959,6.01295,0.26225,5.80207,0.25704,0.01121,0.24802,2.44783,1.54015,0.06717,1.48613
0.18396,5.40365,0.26282,5.54191,0.23099,0.01123,0.2369,2.50747,1.45234,0.07064,1.4895
0.18834,4.9682,0.26223,5.29448,0.21238,0.01121,0.22633,2.56708,1.39956,0.07387,1.49147
0.19271,5.1218,0.25958,5.05914,0.21894,0.0111,0.21627,2.62672,1.51064,0.07656,1.49216
0.19709,4.38585,0.25867,4.83546,0.18748,0.01106,0.2067,2.68633,1.35296,0.0798,1.49166
0.20146,4.69525,0.25921,4.62283,0.20071,0.01108,0.19761,2.74597,1.51342,0.08355,1.49008
0.20584,4.3604,0.25751,4.42081,0.1864,0.01101,0.18898,2.80558,1.46718,0.08665,1.48751
0.21021,4.61885,0.25354,4.22879,0.19744,0.01084,0.18077,2.86522,1.62091,0.08898,1.48403
0.21459,4.18125,0.25758,4.04634,0.17874,0.01101,0.17297,2.92483,1.52904,0.0942,1.47971
0.21896,4.213,0.25386,3.87288,0.1801,0.01085,0.16556,2.98445,1.6041,0.09666,1.4746
0.22334,4.1492,0.25239,3.70786,0.17737,0.01079,0.1585,3.04408,1.64357,0.09998,1.46875
0.22771,3.6227,0.25194,3.55096,0.15486,0.01077,0.15179,3.1037,1.49178,0.10375,1.46223
0.23208,3.47875,0.25034,3.40174,0.14871,0.0107,0.14542,3.16333,1.48807,0.10709,1.45513
0.23646,3.35015,0.24952,3.25992,0.14321,0.01067,0.13935,3.22295,1.48759,0.11079,1.44752
0.24083,3.30095,0.25017,3.12507,0.14111,0.01069,0.13359,3.28258,1.52048,0.11523,1.43947
0.24521,3.3969,0.24577,2.99691,0.14521,0.01051,0.12811,3.3422,1.62203,0.11736,1.43104
0.24958,2.8092,0.24624,2.87502,0.12009,0.01053,0.1229,3.40183,1.3897,0.12182,1.42226
0.25396,3.57545,0.24537,2.7591,0.15284,0.01049,0.11794,3.46145,1.8313,0.12568,1.41317
0.25833,2.6864,0.27271,2.64875,0.11484,0.01166,0.11323,3.52108,1.42375,0.14453,1.4038
0.26271,2.8863,0.2835,2.54371,0.12338,0.01212,0.10874,3.5807,1.58194,0.15538,1.39417
0.26708,2.87645,0.26025,2.4437,0.12296,0.01112,0.10446,3.64033,1.62948,0.14743,1.38433
0.27145,2.60765,0.25083,2.34853,0.11147,0.01072,0.10039,3.69995,1.52599,0.14679,1.37435
0.27583,2.48295,0.2458,2.25793,0.10614,0.01051,0.09652,3.75958,1.50023,0.14852,1.36427
0.2802,2.3149,0.24481,2.17173,0.09896,0.01047,0.09284,3.8192,1.44341,0.15265,1.35414
0.28458,2.613,0.24425,2.08965,0.1117,0.01044,0.08933,3.87883,1.68055,0.15709,1.34396
0.28895,2.03345,0.2444,2.0115,0.08692,0.01045,0.08599,3.93845,1.34833,0.16206,1.33377
0.29333,2.3339,0.24201,1.93703,0.09977,0.01035,0.0828,3.99807,1.59476,0.16536,1.32357
0.2977,2.1606,0.24164,1.86602,0.09236,0.01033,0.07977,4.0577,1.52071,0.17008,1.31337
0.30207,2.25135,0.23858,1.79833,0.09624,0.0102,0.07687,4.11732,1.63149,0.17289,1.3032
0.30645,2.52545,0.23831,1.73379,0.10796,0.01019,0.07412,4.17695,1.88351,0.17773,1.29308
0.31082,1.64685,0.2374,1.67227,0.0704,0.01015,0.07149,4.23657,1.26355,0.18214,1.28306
0.3152,1.9114,0.23749,1.61362,0.08171,0.01015,0.06898,4.2962,1.50811,0.18738,1.27315
0.31957,2.0207,0.23677,1.55769,0.08638,0.01012,0.06659,4.35582,1.6389,0.19203,1.26338
0.32395,1.94855,0.23559,1.50433,0.0833,0.01007,0.06431,4.41545,1.62395,0.19634,1.25373
0.32832,2.04295,0.23354,1.45341,0.08733,0.00998,0.06213,4.47507,1.74891,0.19993,1.24422
0.3327,1.7196,0.23513,1.40476,0.07351,0.01005,0.06005,4.5347,1.5116,0.20669,1.23484
0.33707,1.7355,0.23317,1.35828,0.07419,0.00997,0.05806,4.59432,1.56595,0.21039,1.22559
0.34145,1.68385,0.23373,1.31387,0.07198,0.00999,0.05616,4.65395,1.55904,0.21641,1.21648
0.34582,1.49675,0.22966,1.27144,0.06398,0.00982,0.05435,4.71357,1.42154,0.21812,1.20755
0.35019,1.4899,0.23273,1.23088,0.06369,0.00995,0.05262,4.7732,1.45107,0.22667,1.1988
0.35457,1.8294,0.23077,1.19212,0.0782,0.00986,0.05096,4.83282,1.8265,0.2304,1.19024
0.35894,1.69025,0.22835,1.15505,0.07225,0.00976,0.04938,4.89245,1.72948,0.23365,1.18185
0.36332,1.07405,0.2305,1.11958,0.04591,0.00985,0.04786,4.95207,1.12592,0.24163,1.17365
0.36769,1.4492,0.22844,1.08562,0.06195,0.00977,0.04641,5.01169,1.55599,0.24528,1.16561
0.37207,1.37795,0.22959,1.05306,0.0589,0.00981,0.04502,5.07132,1.51491,0.25241,1.15773
0.37644,1.55345,0.22864,1.02187,0.06641,0.00977,0.04368,5.13094,1.74824,0.25731,1.15001
0.38082,1.69055,0.22882,0.99197,0.07227,0.00978,0.0424,5.19057,1.94701,0.26353,1.14246
0.38519,1.2397,0.22673,0.96332,0.05299,0.00969,0.04118,5.25019,1.46075,0.26716,1.13509
0.38956,1.5561,0.22748,0.93583,0.06652,0.00972,0.04,5.30982,1.87546,0.27416,1.12789
0.39394,1.3535,0.27668,0.90946,0.05786,0.01183,0.03888,5.36944,1.66812,0.341,1.12086
0.39831,1.0126,0.25091,0.88414,0.04329,0.01073,0.03779,5.42907,1.27585,0.31614,1.114
0.40269,1.07815,0.23103,0.85982,0.04609,0.00988,0.03676,5.48869,1.38844,0.29753,1.10728
0.40706,1.38585,0.22516,0.83643,0.05924,0.00962,0.03576,5.54832,1.82369,0.29629,1.10069
0.41144,1.32105,0.22635,0.81394,0.05647,0.00968,0.03479,5.60794,1.77597,0.3043,1.09424
0.41581,1.47285,0.225,0.7923,0.06296,0.00962,0.03387,5.66757,2.02238,0.30895,1.08792
0.42019,1.42455,0.22363,0.77149,0.0609,0.00956,0.03298,5.72719,1.99743,0.31356,1.08174
0.42456,1.15225,0.22334,0.75145,0.04926,0.00955,0.03212,5.78682,1.64944,0.31971,1.0757
0.42894,1.50475,0.22166,0.73216,0.06432,0.00948,0.0313,5.84644,2.19866,0.32387,1.06979
0.43331,1.61935,0.22192,0.71357,0.06922,0.00949,0.0305,5.90607,2.41462,0.3309,1.064
0.43768,1.4683,0.21964,0.69565,0.06277,0.00939,0.02974,5.96569,2.23381,0.33415,1.05834
0.44206,1.4124,0.21941,0.67837,0.06038,0.00938,0.029,6.02531,2.19193,0.34051,1.05277
0.44643,1.3687,0.21878,0.66169,0.05851,0.00935,0.02829,6.08494,2.16636,0.34628,1.04731
0.45081,1.2105,0.21832,0.64559,0.05175,0.00933,0.0276,6.14456,1.95369,0.35236,1.04195
0.45518,1.1716,0.21804,0.63004,0.05008,0.00932,0.02693,6.20419,1.92779,0.35878,1.03669
0.45956,1.15495,0.21808,0.61503,0.04937,0.00932,0.02629,6.26381,1.93709,0.36577,1.03153
0.46393,1.3118,0.21575,0.60053,0.05608,0.00922,0.02567,6.32344,2.24226,0.36877,1.02648
0.46831,0.9921,0.21684,0.58652,0.04241,0.00927,0.02507,6.38306,1.72792,0.37767,1.02153
0.47268,1.61245,0.21629,0.57298,0.06893,0.00925,0.02449,6.44269,2.86109,0.38378,1.01668
0.47705,0.90875,0.21615,0.55988,0.03885,0.00924,0.02393,6.50231,1.64244,0.39067,1.01192
0.48143,1.1708,0.21586,0.54721,0.05005,0.00923,0.02339,6.56194,2.15505,0.39732,1.00723
0.4858,1.16545,0.21469,0.53495,0.04982,0.00918,0.02287,6.62156,2.18436,0.40239,1.00263
0.49018,0.98605,0.21517,0.52307,0.04215,0.0092,0.02236,6.68119,1.88156,0.41058,0.99812
0.49455,1.51315,0.21356,0.51158,0.06468,0.00913,0.02187,6.74081,2.93911,0.41482,0.99369
0.49893,1.067,0.21373,0.50045,0.04561,0.00914,0.02139,6.80044,2.10935,0.42252,0.98934
0.49975,0.8794,0.2154,0.4984,0.03759,0.00921,0.02131,6.81162,1.7442,0.42722,0.98853