Folder: supportingdata/2025/starling_2025/figures/experimental_comparison/saxs_scattering/experiment/syndecan3_ed

Note: 2025/starling_2025/figures/experimental_comparison/saxs_scattering/experiment/readme.md
# About

This directory contains scattering data and their reanalysis using the (wonderful) MFF of [Riback et al.](https://sosnick.uchicago.edu/SAXSonIDPs/).

This means for every SAXS piece of SAXS data here, we:

1. Verified it was of high quality
2. Re-evaluated it in a CONSISTENT (and in our experience, very robust) way


We feel this sets the highest bar for consistent, high-quality experimental data to compare against. We also hope this is generally useful for the community in the future.

### Files

* `sequences.fasta` - the sequences for all the proteins in this directory (53 proteins)
* `mff_analysis_all.csv` - a CSV file we 53 entries with three columns (name, $R_g$ value, $R_g$ error), as calculated for each scattering data directly using the [Molecular Form Factor](https://sosnick.uchicago.edu/SAXSonIDPs/). The Rg/error values here are summaries; for EACH entry, the full MFF output is in the `mff_out.csv` file in each directory.


### Subdirectories
* Each subdirectory (e.g., `alpha_syn`) contains a set of files:
	* `<filename>.dat` (or something like this), which is the original scattering data. If no `_clean.dat` file (described below) is present, this is the file that will be used for the scattering data.
	* `SASD<ID>.dat` - [optional] - some of the files have the original [SASBDB](https://www.sasbdb.org/) scattering data,
	* `<sequence-name>_clean.dat` - the final, cleaned scattering data in a self-consistent format, which, _if available_ will be the scattering data to use. 
	* `mff_out.csv` - full output from the MFF analysis of the cleaned scattering data.

File: mff_out.csv
#File Plotted Below: syndecan3_ed.dat,,,,,,,,,,
,,,,,,,,,,
    #Fit from 0.01-0.15 with polymer MFF,,,,,,,,,,
#Initial search parameter for I0 = 0.03741948,,,,,,,,,,
#Initial search parameter for Rg = 30,,,,,,,,,,
#Initial search parameter for nu = 0.499881,,,,,,,,,,
#BestFit for I0 = 0.04498 +- inf,,,,,,,,,,
#BestFit for I(0)/I0 = 1.00000 +- inf,,,,,,,,,,
#BestFit for Rg = 66.16386 +- inf,,,,,,,,,,
#BestFit for nu = 0.60280 +- inf,,,,,,,,,,
#BestFit reduced chisquared = 2.17482,,,,,,,,,,
#-------------,,,,,,,,,,
#-------------,,,,,,,,,,
,,,,,,,,,,
    #q,I(q),Error,fit,I(q)/I0,Error/I0,fit/I0,qRg,((qRg)^2)I(q)/I0,((qRg)^2)*Error/I0,((qRg)^2)*fit/I0
0.00961,0.03957,0.00088,0.03931,0.87988,0.01962,0.87407,0.63609,0.356,0.00794,0.35365
0.01398,0.03516,0.00042,0.03416,0.78186,0.00924,0.75946,0.92522,0.66929,0.00791,0.65011
0.01835,0.02848,0.00026,0.02859,0.63328,0.00576,0.63564,1.21435,0.93386,0.0085,0.93734
0.02272,0.02287,0.00021,0.02329,0.50846,0.00465,0.51787,1.50347,1.14934,0.01052,1.17059
0.02709,0.01827,0.00019,0.01876,0.40621,0.00415,0.41719,1.79259,1.3053,0.01333,1.34059
0.03146,0.01486,0.00016,0.01512,0.33043,0.00364,0.33608,2.08171,1.43192,0.01579,1.45639
0.03583,0.01209,0.00015,0.0123,0.26879,0.00343,0.27346,2.37084,1.51082,0.01927,1.5371
0.0402,0.01,0.00015,0.01015,0.22241,0.00343,0.22571,2.65995,1.57365,0.02425,1.59701
0.04457,0.00848,0.00013,0.00851,0.18854,0.00284,0.18927,2.94907,1.6397,0.02468,1.64608
0.04894,0.0072,0.00014,0.00724,0.16015,0.00316,0.16101,3.23818,1.67935,0.0331,1.68829
0.05331,0.00642,0.00012,0.00624,0.14281,0.00267,0.13877,3.52728,1.7768,0.03318,1.72648
0.05768,0.0058,0.00013,0.00544,0.12889,0.00284,0.12096,3.81638,1.87722,0.04137,1.76173
0.06205,0.00508,0.00013,0.00479,0.11297,0.0028,0.10653,4.10549,1.90416,0.0472,1.79555
0.06642,0.00434,0.00011,0.00426,0.09658,0.00239,0.09468,4.39458,1.86514,0.04624,1.82857
0.07079,0.00419,0.00011,0.00382,0.09311,0.00249,0.08487,4.68367,2.04251,0.05471,1.86172
0.07516,0.00356,0.00011,0.00345,0.07907,0.00254,0.07664,4.97275,1.95526,0.06282,1.89527
0.07953,0.0032,0.0001,0.00313,0.07124,0.00228,0.06967,5.26183,1.97242,0.06318,1.92881
0.0839,0.00296,0.00008,0.00286,0.06582,0.00189,0.06368,5.5509,2.02793,0.05819,1.96198
0.08827,0.00264,0.0001,0.00263,0.05866,0.00215,0.05847,5.83997,2.00073,0.07346,1.99406
0.09263,0.00251,0.00011,0.00242,0.05571,0.00241,0.05389,6.12902,2.09288,0.09037,2.02455
0.097,0.00234,0.00009,0.00224,0.0521,0.00195,0.04985,6.41807,2.14617,0.0803,2.0533
0.10137,0.00209,0.00009,0.00208,0.04643,0.00206,0.04626,6.7071,2.08875,0.09248,2.08088
0.10574,0.00192,0.00009,0.00194,0.04259,0.00202,0.04306,6.99617,2.08483,0.09865,2.10769
0.11011,0.00184,0.00009,0.00181,0.041,0.00192,0.0402,7.28517,2.17608,0.1018,2.1338
0.11448,0.00178,0.00008,0.00169,0.03968,0.00181,0.03764,7.57417,2.27649,0.10409,2.15934
0.11884,0.00162,0.00009,0.00159,0.03595,0.0019,0.03533,7.86318,2.22297,0.11772,2.18431
0.12321,0.00154,0.00007,0.00149,0.0343,0.00164,0.03323,8.15218,2.27959,0.10869,2.20871
0.12758,0.00141,0.00007,0.00141,0.03142,0.00151,0.03133,8.44119,2.23868,0.10762,2.23251
0.13195,0.00131,0.00008,0.00133,0.02912,0.00181,0.0296,8.73019,2.21977,0.13826,2.25569
0.13631,0.00126,0.00007,0.00126,0.0281,0.00161,0.02801,9.01913,2.28543,0.13072,2.27808
0.14068,0.0012,0.00008,0.00119,0.02676,0.00167,0.02654,9.30813,2.31812,0.1451,2.2995
0.14505,0.00109,0.00007,0.00113,0.02421,0.00158,0.02519,9.59707,2.22997,0.14564,2.31999
0.14942,0.00107,0.00007,0.00108,0.02372,0.0015,0.02394,9.88601,2.31864,0.14702,2.33959
0.15378,0.0011,0.00007,0.00102,0.02436,0.0015,0.02278,10.17494,2.52157,0.1551,2.35831
0.15815,0.00091,0.00006,0.00098,0.02024,0.00141,0.0217,10.46388,2.21565,0.15395,2.37628
0.16252,0.00087,0.00007,0.00093,0.01932,0.00154,0.0207,10.75275,2.23351,0.1783,2.3938
0.16688,0.00087,0.00006,0.00089,0.01936,0.00136,0.01977,11.04162,2.35989,0.16541,2.41083
0.17125,0.00083,0.00007,0.00085,0.0185,0.00155,0.01891,11.3305,2.37459,0.199,2.42722
0.17561,0.00069,0.00007,0.00081,0.01539,0.00158,0.01809,11.61937,2.07826,0.21396,2.44282
0.17998,0.00075,0.00007,0.00078,0.01672,0.00148,0.01733,11.90824,2.37162,0.2104,2.45755
0.18435,0.00067,0.00008,0.00075,0.01491,0.00167,0.01661,12.19711,2.21829,0.24847,2.47151
0.18871,0.0007,0.00007,0.00072,0.01566,0.00151,0.01594,12.48591,2.4412,0.23569,2.48571
0.19308,0.00063,0.00007,0.00069,0.01409,0.00159,0.01533,12.77472,2.29876,0.2591,2.50176
0.19744,0.00061,0.00007,0.00066,0.01351,0.00147,0.01477,13.06353,2.30518,0.25061,2.52082
0.20181,0.0007,0.00007,0.00064,0.01551,0.0015,0.01427,13.35226,2.76436,0.26667,2.544
0.20617,0.00058,0.00007,0.00062,0.01291,0.00152,0.01383,13.64107,2.40276,0.28308,2.57272
0.21053,0.00054,0.00007,0.0006,0.0121,0.00166,0.01344,13.92981,2.34772,0.32303,2.60886
0.2149,0.00057,0.00008,0.00059,0.01275,0.00168,0.01313,14.21855,2.5781,0.34064,2.65491
0.21926,0.00061,0.00007,0.00058,0.01349,0.00147,0.01289,14.50722,2.83831,0.30922,2.71357
0.22363,0.00055,0.00007,0.00057,0.01228,0.00156,0.01273,14.79596,2.68829,0.34081,2.78769
0.22799,0.00053,0.00007,0.00057,0.01183,0.00157,0.01266,15.08463,2.69249,0.35651,2.87996
0.23235,0.00059,0.00006,0.00057,0.01305,0.00142,0.01267,15.37331,3.08537,0.33635,2.9933
0.23671,0.00044,0.00006,0.00057,0.00976,0.00141,0.01276,15.66191,2.39352,0.34634,3.13094
0.24108,0.00037,0.00006,0.00058,0.00814,0.00137,0.01296,15.95059,2.06973,0.34935,3.29672
0.24544,0.00047,0.00007,0.0006,0.01056,0.00151,0.01325,16.23919,2.784,0.39898,3.4949
0.2498,0.00044,0.00006,0.00061,0.00983,0.00138,0.01366,16.5278,2.68524,0.37676,3.73025
0.25416,0.00044,0.00006,0.00064,0.00975,0.00137,0.01417,16.81634,2.75639,0.38864,4.00795
0.25852,0.00049,0.00007,0.00067,0.01083,0.00147,0.01481,17.10488,3.1673,0.42984,4.3338
0.26288,0.00033,0.00008,0.0007,0.00723,0.00169,0.01558,17.39342,2.1873,0.51149,4.71373
0.26725,0.00035,0.00006,0.00074,0.00789,0.00128,0.01648,17.68196,2.46583,0.40041,5.15356
0.2716,0.00041,0.00006,0.00079,0.00914,0.00134,0.01753,17.97044,2.95072,0.43307,5.6596
0.27597,0.00047,0.00006,0.00084,0.01045,0.00139,0.01871,18.25891,3.48484,0.46233,6.23895
0.28032,0.00038,0.00006,0.0009,0.00847,0.00127,0.02005,18.54732,2.91526,0.43798,6.89864
0.28468,0.0004,0.00007,0.00097,0.00883,0.00156,0.02155,18.83579,3.13373,0.55316,7.64635
0.28904,0.00035,0.00006,0.00104,0.0078,0.00133,0.02321,19.1242,2.85263,0.48723,8.48928
0.2934,0.00035,0.00007,0.00113,0.00786,0.0016,0.02504,19.41254,2.96063,0.60216,9.43526
0.29776,0.00035,0.00006,0.00122,0.00787,0.00144,0.02703,19.70095,3.05621,0.55939,10.49295
0.30212,0.00034,0.00007,0.00131,0.00761,0.00165,0.02921,19.98929,3.04102,0.66025,11.67048
0.30647,0.00024,0.00007,0.00142,0.00536,0.00154,0.03156,20.27757,2.20426,0.63371,12.97678
0.31083,0.00033,0.00008,0.00153,0.0073,0.00174,0.0341,20.56591,3.08623,0.73511,14.42182
0.31519,0.00042,0.00007,0.00166,0.00927,0.00146,0.03682,20.85412,4.03051,0.63587,16.01434
0.31955,0.00033,0.00007,0.00179,0.00731,0.00166,0.03974,21.1424,3.26922,0.74216,17.76557
0.3239,0.00022,0.00007,0.00193,0.00496,0.00166,0.04286,21.43061,2.27857,0.76392,19.68531
0.32826,0.0003,0.00008,0.00208,0.00673,0.00181,0.04618,21.71882,3.17425,0.85511,21.78495
0.33261,0.00022,0.00008,0.00224,0.00483,0.00178,0.04971,22.00696,2.33797,0.86299,24.07538
0.33697,0.00038,0.00007,0.0024,0.00837,0.0016,0.05345,22.2951,4.16165,0.79515,26.56894
0.34132,0.00029,0.00008,0.00258,0.00639,0.0017,0.05741,22.58325,3.25767,0.86859,29.27793
0.34568,0.00024,0.00008,0.00277,0.00524,0.00185,0.06158,22.87133,2.74292,0.96661,32.21442
0.35003,0.00031,0.00007,0.00297,0.00689,0.00158,0.06599,23.1594,3.69752,0.84955,35.39222
0.35438,0.00027,0.00007,0.00318,0.0059,0.00165,0.07062,23.44741,3.24139,0.90916,38.82418
0.35874,0.0003,0.00007,0.00339,0.00659,0.00151,0.07548,23.73549,3.71129,0.85057,42.52603
0.36309,0.00023,0.00007,0.00362,0.00515,0.00157,0.08059,24.02344,2.97477,0.90456,46.50973
0.36744,0.00028,0.00006,0.00387,0.00625,0.00144,0.08594,24.31138,3.69313,0.85285,50.79204
0.37179,0.00023,0.00006,0.00412,0.00517,0.00144,0.09153,24.59933,3.12794,0.87392,55.38853
0.37615,0.00019,0.00007,0.00438,0.0043,0.00166,0.09738,24.88721,2.66178,1.03106,60.31413
0.3805,0.00026,0.00007,0.00465,0.00586,0.00152,0.10348,25.17508,3.71455,0.961,65.58646
0.38485,0.00026,0.00007,0.00494,0.00579,0.00159,0.10985,25.46296,3.75537,1.03274,71.22261
0.3892,0.00026,0.00007,0.00524,0.00577,0.00166,0.11648,25.75078,3.82372,1.10326,77.23881
0.39355,0.00027,0.00006,0.00555,0.00604,0.00141,0.12338,26.03852,4.09807,0.95769,83.65292
0.3979,0.00022,0.00007,0.00587,0.00497,0.00147,0.13056,26.32634,3.44383,1.01786,90.4866
0.40224,0.00027,0.00007,0.00621,0.00595,0.00161,0.13801,26.61402,4.21547,1.13744,97.7542
0.40659,0.00026,0.00008,0.00656,0.00589,0.00179,0.14575,26.9017,4.25923,1.29726,105.479
0.41094,0.00015,0.00007,0.00692,0.00341,0.0016,0.15377,27.18938,2.52379,1.18499,113.68
0.41529,0.00034,0.00007,0.00729,0.00757,0.0016,0.16209,27.47699,5.71148,1.21135,122.377
0.41963,0.00021,0.00008,0.00768,0.00467,0.0017,0.17071,27.76461,3.59695,1.3107,131.594
0.42398,0.00012,0.00008,0.00808,0.00272,0.00169,0.17962,28.05215,2.13881,1.32763,141.349
0.42833,0.00024,0.00007,0.00849,0.00527,0.00166,0.18884,28.3397,4.22878,1.33191,151.668
0.43267,0.00021,0.00007,0.00892,0.00475,0.00148,0.19838,28.62725,3.89132,1.21426,162.574
0.43702,0.00021,0.00007,0.00936,0.00462,0.0016,0.20822,28.91467,3.86072,1.33912,174.085
0.44136,0.00012,0.00006,0.00982,0.00275,0.00142,0.21839,29.20215,2.34884,1.21282,186.233
0.4457,0.00017,0.00007,0.01029,0.0038,0.00165,0.22887,29.4895,3.30888,1.43428,199.035
0.45005,0.00024,0.00009,0.01078,0.0054,0.00201,0.23969,29.77691,4.7838,1.78353,212.5247
0.45439,0.00016,0.00011,0.01128,0.00359,0.00247,0.25084,30.06426,3.24311,2.23418,226.723
0.45873,0.00028,0.0001,0.0118,0.00617,0.0022,0.26232,30.35155,5.68712,2.02389,241.655
0.46308,0.00009,0.00012,0.01233,0.00193,0.00257,0.27415,30.63883,1.8154,2.41455,257.352
0.46742,0.00012,0.00011,0.01288,0.00256,0.00243,0.28632,30.92605,2.45212,2.32817,273.839
0.47176,0.0002,0.00015,0.01344,0.00443,0.0033,0.29883,31.2132,4.31321,3.2169,291.143
0.4761,0.00016,0.00014,0.01402,0.00355,0.00316,0.31171,31.50035,3.5186,3.13754,309.2986
0.48044,0.00009,0.00015,0.01461,0.002,0.00327,0.32494,31.7875,2.02423,3.30702,328.335
0.48478,0.00018,0.00014,0.01523,0.00405,0.00319,0.33854,32.07459,4.16883,3.28214,348.278
0.48911,0.00017,0.00015,0.01585,0.00381,0.00342,0.3525,32.3616,3.99055,3.58652,369.159
0.49345,0.00009,0.00018,0.0165,0.0019,0.00395,0.36683,32.64862,2.02132,4.21378,391.015
0.49562,0.00029,0.0002,0.01683,0.00647,0.00452,0.37414,32.79213,6.95709,4.85711,402.319