Folder: supportingdata/2025/starling_2025/figures/experimental_comparison/saxs_scattering/experiment/tau_504_758

Note: 2025/starling_2025/figures/experimental_comparison/saxs_scattering/experiment/readme.md
# About

This directory contains scattering data and their reanalysis using the (wonderful) MFF of [Riback et al.](https://sosnick.uchicago.edu/SAXSonIDPs/).

This means for every SAXS piece of SAXS data here, we:

1. Verified it was of high quality
2. Re-evaluated it in a CONSISTENT (and in our experience, very robust) way


We feel this sets the highest bar for consistent, high-quality experimental data to compare against. We also hope this is generally useful for the community in the future.

### Files

* `sequences.fasta` - the sequences for all the proteins in this directory (53 proteins)
* `mff_analysis_all.csv` - a CSV file we 53 entries with three columns (name, $R_g$ value, $R_g$ error), as calculated for each scattering data directly using the [Molecular Form Factor](https://sosnick.uchicago.edu/SAXSonIDPs/). The Rg/error values here are summaries; for EACH entry, the full MFF output is in the `mff_out.csv` file in each directory.


### Subdirectories
* Each subdirectory (e.g., `alpha_syn`) contains a set of files:
	* `<filename>.dat` (or something like this), which is the original scattering data. If no `_clean.dat` file (described below) is present, this is the file that will be used for the scattering data.
	* `SASD<ID>.dat` - [optional] - some of the files have the original [SASBDB](https://www.sasbdb.org/) scattering data,
	* `<sequence-name>_clean.dat` - the final, cleaned scattering data in a self-consistent format, which, _if available_ will be the scattering data to use. 
	* `mff_out.csv` - full output from the MFF analysis of the cleaned scattering data.

File: mff_out.csv
#File Plotted Below: tau_504_758_clean.dat,,,,,,,,,,
,,,,,,,,,,
    #Fit from 0.01-0.15 with polymer MFF,,,,,,,,,,
#Initial search parameter for I0 = 0.0144248,,,,,,,,,,
#Initial search parameter for Rg = 30,,,,,,,,,,
#Initial search parameter for nu = 0.499881,,,,,,,,,,
#BestFit for I0 = 0.01631 +- 0.00005,,,,,,,,,,
#BestFit for I(0)/I0 = 1.00000 +- 0.00302,,,,,,,,,,
#BestFit for Rg = 49.25473 +- 0.13971,,,,,,,,,,
#BestFit for nu = 0.58626 +- 0.00225,,,,,,,,,,
#BestFit reduced chisquared = 1.02824,,,,,,,,,,
#-------------,,,,,,,,,,
#-------------,,,,,,,,,,
,,,,,,,,,,
    #q,I(q),Error,fit,I(q)/I0,Error/I0,fit/I0,qRg,((qRg)^2)I(q)/I0,((qRg)^2)*Error/I0,((qRg)^2)*fit/I0
0.00951,0.01447,0.00035,0.01515,0.88718,0.02136,0.92874,0.46854,0.19476,0.00469,0.20388
0.01561,0.01326,0.0002,0.01343,0.81321,0.01197,0.8234,0.76877,0.48061,0.00707,0.48663
0.0217,0.01131,0.00017,0.01137,0.69357,0.01015,0.69738,1.069,0.79258,0.0116,0.79693
0.0278,0.009,0.00015,0.0093,0.55178,0.00901,0.57037,1.36922,1.03445,0.0169,1.0693
0.03389,0.0073,0.00013,0.00746,0.4478,0.00817,0.45717,1.66945,1.24804,0.02276,1.27415
0.03999,0.00603,0.00014,0.00595,0.36989,0.00884,0.36463,1.96968,1.43504,0.03429,1.41464
0.04609,0.00465,0.00012,0.00477,0.28513,0.00747,0.29275,2.26991,1.46911,0.03851,1.50838
0.05218,0.00404,0.00011,0.00389,0.24746,0.00689,0.23824,2.57014,1.63464,0.04549,1.57372
0.05828,0.00313,0.00011,0.00321,0.19191,0.00668,0.19702,2.87036,1.58113,0.05502,1.62328
0.06437,0.00268,0.0001,0.0027,0.16437,0.00622,0.16553,3.17059,1.65232,0.06254,1.66398
0.07047,0.00229,0.00009,0.0023,0.14052,0.00581,0.14105,3.47082,1.69281,0.06995,1.69913
0.07656,0.002,0.00009,0.00198,0.12271,0.00556,0.12168,3.77105,1.74509,0.07908,1.73045
0.08266,0.00156,0.00009,0.00173,0.09536,0.00546,0.10615,4.07127,1.58062,0.09056,1.75941
0.08875,0.00151,0.00008,0.00152,0.09238,0.00521,0.09348,4.3715,1.76547,0.09947,1.78645
0.09485,0.00145,0.00009,0.00135,0.08882,0.0054,0.08304,4.67173,1.93847,0.11776,1.81235
0.10094,0.00129,0.00009,0.00121,0.0792,0.00529,0.07432,4.97197,1.9579,0.13073,1.83734
0.10704,0.00118,0.00008,0.00109,0.07262,0.00497,0.06696,5.27218,2.01847,0.13823,1.86124
0.11314,0.00096,0.00008,0.00099,0.05871,0.00473,0.06067,5.57243,1.8231,0.14698,1.88397
0.11923,0.00079,0.00008,0.0009,0.04843,0.00461,0.05524,5.87264,1.67008,0.15882,1.90514
0.12532,0.00085,0.00007,0.00082,0.05199,0.00442,0.05051,6.17285,1.98091,0.1686,1.92463
0.13142,0.00077,0.00007,0.00076,0.04741,0.00433,0.04636,6.47311,1.98664,0.18132,1.94257
0.13752,0.00062,0.00007,0.0007,0.03787,0.00418,0.04271,6.77331,1.73755,0.19191,1.95939
0.14361,0.00059,0.00007,0.00064,0.03603,0.0041,0.03948,7.07357,1.80278,0.20492,1.97547
0.14971,0.00055,0.00007,0.0006,0.03401,0.00404,0.03662,7.37378,1.84927,0.21971,1.99095
0.1558,0.00066,0.00007,0.00056,0.04031,0.00432,0.03406,7.67403,2.37366,0.25426,2.00593
0.1619,0.00045,0.00007,0.00052,0.0278,0.00409,0.03177,7.97424,1.76757,0.26007,2.02042
0.16799,0.00041,0.00006,0.00048,0.02521,0.00393,0.02971,8.27445,1.72575,0.26873,2.03437
0.17409,0.00042,0.00006,0.00045,0.02548,0.00384,0.02785,8.57471,1.87307,0.28262,2.04782
0.18018,0.00034,0.00006,0.00043,0.02077,0.00379,0.02616,8.87491,1.63614,0.2988,2.06074
0.18628,0.00042,0.00006,0.0004,0.02603,0.00374,0.02463,9.17517,2.1915,0.31513,2.07305
0.19238,0.00038,0.00006,0.00038,0.02321,0.00369,0.02322,9.47538,2.08415,0.33102,2.08469
0.19847,0.00034,0.00006,0.00036,0.02086,0.00363,0.02193,9.77559,1.99308,0.34651,2.09568
0.20457,0.00035,0.00006,0.00034,0.02154,0.00363,0.02074,10.07584,2.18704,0.36834,2.10606
0.21066,0.00033,0.00006,0.00032,0.02048,0.00365,0.01965,10.37605,2.20494,0.39301,2.1159
0.21676,0.00045,0.00006,0.0003,0.02776,0.00395,0.01865,10.67631,3.1645,0.45054,2.12536
0.22285,0.00027,0.00006,0.00029,0.01671,0.00367,0.01772,10.97651,2.01385,0.44182,2.13451
0.22895,0.00019,0.00006,0.00027,0.01135,0.00355,0.01685,11.27677,1.44304,0.45105,2.14335
0.23504,0.00028,0.00006,0.00026,0.0173,0.00347,0.01606,11.57698,2.31833,0.46447,2.15182
0.24114,0.00031,0.00006,0.00025,0.01919,0.00346,0.01531,11.87719,2.70774,0.48812,2.15986
0.24723,0.00023,0.00006,0.00024,0.01384,0.0034,0.01462,12.17744,2.05245,0.50403,2.1674
0.25333,0.00019,0.00005,0.00023,0.0114,0.00335,0.01397,12.47765,1.77429,0.52108,2.17486
0.25943,0.00031,0.00005,0.00022,0.0189,0.00332,0.01337,12.77791,3.08667,0.54279,2.18303
0.26552,0.00024,0.00005,0.00021,0.01448,0.00325,0.01282,13.07812,2.47629,0.55635,2.19207
0.27161,0.00034,0.00006,0.0002,0.02071,0.00344,0.0123,13.37832,3.70706,0.61641,2.20207
0.27771,0.00022,0.00006,0.00019,0.01344,0.00339,0.01183,13.67858,2.51392,0.63483,2.21336
0.28381,0.00029,0.00005,0.00019,0.01795,0.0033,0.01139,13.97879,3.50792,0.64545,2.22649
0.2899,0.00026,0.00005,0.00018,0.01598,0.00323,0.011,14.27904,3.25903,0.65759,2.24217
0.296,0.00014,0.00005,0.00017,0.00866,0.00319,0.01064,14.57925,1.84101,0.67767,2.26134
0.30209,0.00022,0.00005,0.00017,0.01338,0.00317,0.01032,14.87946,2.9619,0.70157,2.2849
0.30819,0.00026,0.00005,0.00016,0.01574,0.00315,0.01004,15.17972,3.62713,0.72675,2.31354
0.31428,0.00019,0.00005,0.00016,0.01141,0.00313,0.0098,15.47992,2.7344,0.74896,2.34803
0.32038,0.00021,0.00005,0.00016,0.01263,0.00311,0.00959,15.78018,3.14516,0.77533,2.38923
0.32647,0.00017,0.00005,0.00015,0.01055,0.00307,0.00943,16.08039,2.72681,0.79477,2.4382
0.33257,0.00011,0.00005,0.00015,0.00692,0.00331,0.0093,16.38064,1.85574,0.88809,2.49611
0.33866,0.00015,0.00005,0.00015,0.00889,0.00315,0.00922,16.68085,2.47494,0.87647,2.56417
0.34476,0.00014,0.00005,0.00015,0.00849,0.00309,0.00917,16.98106,2.44801,0.89128,2.64389
0.35086,0.00024,0.00005,0.00015,0.01453,0.00306,0.00916,17.28132,4.34076,0.91357,2.73699
0.35695,0.00013,0.00005,0.00015,0.00793,0.00302,0.0092,17.58152,2.45142,0.93321,2.84469
0.36305,0.00021,0.00005,0.00015,0.01275,0.003,0.00928,17.88178,4.07595,0.96003,2.96835
0.36914,0.00017,0.00005,0.00015,0.01059,0.00299,0.00941,18.18199,3.50051,0.98834,3.10964
0.37524,0.00017,0.00005,0.00016,0.0103,0.00298,0.00957,18.4822,3.51834,1.01909,3.27029
0.38133,0.00019,0.00005,0.00016,0.01135,0.00299,0.00978,18.78245,4.00565,1.05632,3.45195
0.38743,0.00014,0.00005,0.00016,0.00828,0.00309,0.01004,19.08266,3.01457,1.12639,3.65615
0.39352,0.00016,0.00005,0.00017,0.01001,0.00326,0.01034,19.38292,3.75986,1.22446,3.88453
0.39962,0.00021,0.00005,0.00017,0.01291,0.00315,0.01068,19.68312,5.00239,1.21961,4.13866
0.40572,0.00013,0.00005,0.00018,0.00799,0.00312,0.01107,19.98338,3.19081,1.24509,4.42029
0.41181,0.00016,0.00005,0.00019,0.0099,0.00312,0.0115,20.28359,4.07203,1.28293,4.73103
0.41791,0.00015,0.00005,0.0002,0.00913,0.00312,0.01197,20.5838,3.86761,1.32036,5.07268
0.424,0.00016,0.00005,0.0002,0.00987,0.00314,0.01249,20.88405,4.30281,1.36977,5.4471
0.4301,0.00015,0.00005,0.00021,0.00925,0.00313,0.01305,21.18426,4.15223,1.40312,5.85599
0.43619,0.00012,0.00005,0.00022,0.00764,0.00313,0.01365,21.48452,3.52631,1.44267,6.30135
0.44229,0.00016,0.00005,0.00023,0.00983,0.00312,0.0143,21.78473,4.66477,1.48154,6.78497
0.44838,0.00017,0.00005,0.00024,0.01053,0.00337,0.01498,22.08493,5.137,1.64156,7.30884
0.45448,0.00016,0.00005,0.00026,0.00969,0.00331,0.01572,22.38519,4.85743,1.65968,7.87506
0.46057,0.00013,0.00005,0.00027,0.00779,0.00327,0.01649,22.6854,4.01123,1.68284,8.48547
0.46667,0.00012,0.00005,0.00028,0.00708,0.00326,0.0173,22.98565,3.74314,1.72019,9.14234
0.47276,0.00015,0.00005,0.0003,0.00933,0.00322,0.01816,23.28586,5.05813,1.74756,9.84755
0.47886,0.00009,0.00005,0.00031,0.00572,0.00322,0.01906,23.58612,3.1815,1.79372,10.60347
0.48496,0.00021,0.00005,0.00033,0.01264,0.00321,0.02,23.88633,7.2144,1.83164,11.41204
0.49105,0.00006,0.00005,0.00034,0.00346,0.00321,0.02098,24.18653,2.02414,1.87603,12.2756
0.49715,0.00025,0.00005,0.00036,0.0151,0.00321,0.02201,24.48679,9.05192,1.92578,13.19655
0.50324,0.00009,0.00005,0.00038,0.00529,0.00322,0.02307,24.787,3.24831,1.97869,14.17689
0.50934,0.00025,0.00006,0.00039,0.01534,0.00363,0.02418,25.08725,9.65212,2.28773,15.21925
0.51543,0.00008,0.00006,0.00041,0.00492,0.00338,0.02533,25.38746,3.16818,2.17987,16.32567
0.52153,0.00003,0.00005,0.00043,0.00154,0.00334,0.02652,25.68767,1.01743,2.20334,17.49871
0.52762,0.00017,0.00005,0.00045,0.01044,0.00333,0.02775,25.98793,7.04824,2.24759,18.74102
0.53372,0.00014,0.00005,0.00047,0.00872,0.00331,0.02902,26.28813,6.02785,2.28444,20.05466
0.53981,0.00019,0.00005,0.00049,0.01179,0.00332,0.03033,26.58839,8.33717,2.34593,21.44257
0.54591,0.00013,0.00005,0.00052,0.00792,0.0033,0.03168,26.8886,5.72881,2.38396,22.90683
0.55201,0.00007,0.00005,0.00054,0.00412,0.0033,0.03308,27.18886,3.04733,2.43879,24.45051
0.5581,0.00013,0.00005,0.00056,0.00818,0.00329,0.03451,27.48906,6.18272,2.48755,26.07571
0.5642,0.00009,0.00006,0.00059,0.00574,0.0035,0.03598,27.78927,4.43515,2.70435,27.78533
0.57029,0.00018,0.00006,0.00061,0.0113,0.0036,0.03749,28.08953,8.9178,2.84124,29.58234
0.57639,0.00011,0.00006,0.00064,0.00651,0.00345,0.03904,28.38974,5.24957,2.7826,31.46887
0.58248,0.00009,0.00006,0.00066,0.00526,0.00343,0.04064,28.68999,4.32906,2.8241,33.44829
0.58858,0.00009,0.00006,0.00069,0.00561,0.00342,0.04227,28.9902,4.71303,2.87203,35.52274
0.59467,0.0001,0.00006,0.00072,0.00636,0.0034,0.04394,29.29041,5.4605,2.92036,37.69534
0.60077,0.00008,0.00006,0.00074,0.00463,0.00338,0.04565,29.59066,4.05174,2.9598,39.96933
0.60686,0.00009,0.00005,0.00077,0.0057,0.00336,0.0474,29.89087,5.0895,3.00534,42.34683
0.61296,0.0001,0.00005,0.0008,0.00597,0.00337,0.04918,30.19113,5.44001,3.07213,44.83155
0.61905,0.00015,0.00005,0.00083,0.00924,0.00336,0.05101,30.49134,8.58861,3.12161,47.42561
0.62515,0.00011,0.00006,0.00086,0.00671,0.00374,0.05288,30.79154,6.35996,3.54347,50.13239
0.63125,0.00006,0.00006,0.00089,0.00349,0.00363,0.05478,31.0918,3.37206,3.5048,52.95538
0.63734,0.00011,0.00006,0.00093,0.00681,0.00356,0.05672,31.39201,6.71574,3.50401,55.89668
0.64344,0.00003,0.00006,0.00096,0.00186,0.00351,0.0587,31.69226,1.86571,3.52634,58.96033
0.64953,0.00014,0.00006,0.00099,0.00881,0.00352,0.06072,31.99247,9.01268,3.60577,62.14844
0.65563,0.00004,0.00006,0.00102,0.00249,0.00348,0.06278,32.29273,2.59928,3.63292,65.46518
0.66172,0.00008,0.00006,0.00106,0.00467,0.00349,0.06487,32.59294,4.95949,3.70574,68.91263
0.66782,0.00006,0.00006,0.00109,0.00383,0.0035,0.067,32.89314,4.1458,3.78158,72.49451
0.67391,0.00011,0.00006,0.00113,0.00657,0.00352,0.06917,33.1934,7.24179,3.8808,76.21468
0.67419,0.00011,0.00006,0.00113,0.00696,0.00351,0.06927,33.20704,7.67693,3.87564,76.38705