Folder: supportingdata/2025/starling_2025/figures/experimental_comparison/saxs_scattering/experiment/trf2_ntd

Note: 2025/starling_2025/figures/experimental_comparison/saxs_scattering/experiment/readme.md
# About

This directory contains scattering data and their reanalysis using the (wonderful) MFF of [Riback et al.](https://sosnick.uchicago.edu/SAXSonIDPs/).

This means for every SAXS piece of SAXS data here, we:

1. Verified it was of high quality
2. Re-evaluated it in a CONSISTENT (and in our experience, very robust) way


We feel this sets the highest bar for consistent, high-quality experimental data to compare against. We also hope this is generally useful for the community in the future.

### Files

* `sequences.fasta` - the sequences for all the proteins in this directory (53 proteins)
* `mff_analysis_all.csv` - a CSV file we 53 entries with three columns (name, $R_g$ value, $R_g$ error), as calculated for each scattering data directly using the [Molecular Form Factor](https://sosnick.uchicago.edu/SAXSonIDPs/). The Rg/error values here are summaries; for EACH entry, the full MFF output is in the `mff_out.csv` file in each directory.


### Subdirectories
* Each subdirectory (e.g., `alpha_syn`) contains a set of files:
	* `<filename>.dat` (or something like this), which is the original scattering data. If no `_clean.dat` file (described below) is present, this is the file that will be used for the scattering data.
	* `SASD<ID>.dat` - [optional] - some of the files have the original [SASBDB](https://www.sasbdb.org/) scattering data,
	* `<sequence-name>_clean.dat` - the final, cleaned scattering data in a self-consistent format, which, _if available_ will be the scattering data to use. 
	* `mff_out.csv` - full output from the MFF analysis of the cleaned scattering data.

File: mff_out.csv
#File Plotted Below: trf2_ntd.dat,,,,,,,,,,
,,,,,,,,,,
    #Fit from 0.01-0.15 with polymer MFF,,,,,,,,,,
#Initial search parameter for I0 = 0.107824,,,,,,,,,,
#Initial search parameter for Rg = 30,,,,,,,,,,
#Initial search parameter for nu = 0.499881,,,,,,,,,,
#BestFit for I0 = 0.10208 +- 0.00089,,,,,,,,,,
#BestFit for I(0)/I0 = 1.00000 +- 0.00875,,,,,,,,,,
#BestFit for Rg = 16.56089 +- 0.16083,,,,,,,,,,
#BestFit for nu = 0.60280 +- 0.02575,,,,,,,,,,
#BestFit reduced chisquared = 1.66706,,,,,,,,,,
#-------------,,,,,,,,,,
#-------------,,,,,,,,,,
,,,,,,,,,,
    #q,I(q),Error,fit,I(q)/I0,Error/I0,fit/I0,qRg,((qRg)^2)I(q)/I0,((qRg)^2)*Error/I0,((qRg)^2)*fit/I0
0.01092,0.1393,0.03596,0.10106,1.36462,0.35224,0.99002,0.18085,0.04463,0.01152,0.03238
0.01668,0.11407,0.00509,0.09955,1.11744,0.0499,0.97523,0.27625,0.08528,0.00381,0.07442
0.02244,0.10027,0.004,0.09746,0.98226,0.03915,0.95476,0.37165,0.13567,0.00541,0.13187
0.0282,0.10335,0.00343,0.09486,1.0124,0.03362,0.9293,0.46704,0.22083,0.00733,0.20271
0.03396,0.09448,0.00283,0.09183,0.92553,0.02771,0.89954,0.56244,0.29278,0.00877,0.28456
0.03972,0.09344,0.00282,0.08842,0.91534,0.02761,0.86619,0.65783,0.39611,0.01195,0.37484
0.04548,0.08578,0.00251,0.08472,0.84035,0.0246,0.82993,0.75323,0.47678,0.01395,0.47087
0.05124,0.08148,0.00243,0.08079,0.79817,0.02379,0.79147,0.84863,0.57481,0.01714,0.56999
0.057,0.07387,0.00204,0.07671,0.72368,0.01996,0.75149,0.94402,0.64493,0.01779,0.66971
0.06276,0.07169,0.00192,0.07255,0.70232,0.01882,0.71069,1.03942,0.75878,0.02033,0.76782
0.06852,0.06502,0.00171,0.06836,0.63697,0.01672,0.66966,1.13482,0.8203,0.02153,0.8624
0.07428,0.0634,0.00176,0.0642,0.62102,0.01722,0.6289,1.23021,0.93987,0.02607,0.9518
0.08004,0.05765,0.0018,0.06011,0.56479,0.01766,0.58888,1.32561,0.99247,0.03103,1.0348
0.08581,0.05562,0.0016,0.05615,0.54486,0.01565,0.55007,1.42101,1.10022,0.0316,1.11073
0.09157,0.05083,0.00151,0.05236,0.49795,0.01482,0.51295,1.5164,1.14502,0.03409,1.17952
0.09733,0.04878,0.00138,0.04878,0.47783,0.01352,0.47787,1.6118,1.24135,0.03513,1.24147
0.10309,0.04484,0.00149,0.04542,0.43924,0.01456,0.4449,1.7072,1.28018,0.04244,1.29668
0.10885,0.04226,0.00132,0.04227,0.41395,0.01297,0.41406,1.80259,1.34504,0.04213,1.3454
0.11461,0.03929,0.00137,0.03934,0.3849,0.01344,0.38533,1.89799,1.38655,0.04842,1.38812
0.12037,0.03587,0.00134,0.03662,0.35137,0.01317,0.35877,1.99338,1.3962,0.05233,1.42559
0.12613,0.03472,0.00126,0.03413,0.3401,0.01231,0.33434,2.08878,1.48385,0.05369,1.45871
0.13189,0.03144,0.00113,0.03184,0.30801,0.01108,0.31194,2.18418,1.46939,0.05288,1.48816
0.13765,0.0317,0.00125,0.02975,0.31053,0.01221,0.29144,2.27957,1.61366,0.06347,1.51444
0.14341,0.02882,0.00117,0.02784,0.28233,0.0115,0.27269,2.37496,1.59245,0.06488,1.53807
0.14917,0.02815,0.00123,0.02609,0.27576,0.01206,0.25554,2.47037,1.68291,0.07358,1.5595
0.15493,0.02739,0.0012,0.02449,0.26835,0.01172,0.23987,2.56576,1.76657,0.07713,1.57909
0.16069,0.02415,0.00122,0.02302,0.23661,0.01197,0.22554,2.66115,1.6756,0.0848,1.59723
0.16645,0.02335,0.00127,0.02169,0.22874,0.01249,0.21244,2.75656,1.73809,0.0949,1.61426
0.17221,0.02271,0.00127,0.02046,0.22252,0.01245,0.20045,2.85195,1.80986,0.10124,1.63041
0.17797,0.02265,0.00123,0.01934,0.22185,0.01209,0.18946,2.94734,1.92717,0.10505,1.64581
0.18373,0.02247,0.0012,0.01831,0.22012,0.01179,0.17934,3.04275,2.03794,0.10917,1.66043
0.18949,0.01998,0.00119,0.01736,0.19577,0.01166,0.17002,3.13814,1.9279,0.11478,1.6743
0.19525,0.01731,0.00124,0.01648,0.16959,0.01217,0.16141,3.23355,1.77323,0.12727,1.68765
0.20101,0.01812,0.00121,0.01567,0.17748,0.01186,0.15346,3.32894,1.9668,0.13147,1.70061
0.20677,0.02,0.00128,0.01491,0.19594,0.01252,0.14611,3.42433,2.29759,0.14685,1.71325
0.21253,0.01751,0.00129,0.01422,0.17157,0.01268,0.13928,3.51974,2.12544,0.15709,1.72553
0.21829,0.01784,0.0013,0.01357,0.17479,0.01278,0.13294,3.61513,2.28437,0.16696,1.73742
0.22405,0.01607,0.00132,0.01297,0.15741,0.01291,0.12704,3.71052,2.16721,0.1777,1.74903
0.22981,0.01882,0.00123,0.01241,0.18436,0.01206,0.12154,3.80592,2.67048,0.17475,1.76048
0.23557,0.01547,0.00123,0.01188,0.15154,0.01201,0.11641,3.90132,2.30652,0.18282,1.77181
0.24133,0.0128,0.00115,0.01139,0.12534,0.01126,0.11162,3.99671,2.00215,0.17986,1.783
0.2471,0.01532,0.0013,0.01094,0.15005,0.01277,0.10714,4.09211,2.51256,0.21378,1.79402
0.25285,0.01366,0.00121,0.01051,0.13379,0.01188,0.10293,4.1875,2.34609,0.20827,1.80493
0.25861,0.01126,0.00123,0.01011,0.11034,0.01208,0.09899,4.28289,2.02391,0.22159,1.81581
0.26438,0.01178,0.00116,0.00973,0.11537,0.01141,0.09529,4.3783,2.21168,0.21867,1.82671
0.27014,0.01128,0.00124,0.00937,0.11054,0.01216,0.09182,4.47369,2.21241,0.24342,1.83764
0.2759,0.00872,0.00129,0.00904,0.08543,0.01262,0.08855,4.56908,1.78351,0.2634,1.84856
0.28166,0.01004,0.00124,0.00872,0.09833,0.01213,0.08547,4.66449,2.13945,0.26393,1.85951
0.28742,0.01025,0.00124,0.00843,0.10037,0.01211,0.08256,4.75988,2.27406,0.27431,1.87052
0.29318,0.00971,0.00136,0.00815,0.09513,0.01335,0.07982,4.85527,2.24249,0.31461,1.88158
0.29894,0.01172,0.00125,0.00788,0.11478,0.01226,0.07722,4.95068,2.81322,0.3005,1.89269
0.3047,0.01006,0.00127,0.00763,0.09853,0.01246,0.07477,5.04607,2.50897,0.31737,1.9038
0.31046,0.00922,0.00131,0.00739,0.09033,0.01287,0.07244,5.14146,2.38785,0.34011,1.91487
0.31622,0.00752,0.00121,0.00717,0.07363,0.01181,0.07023,5.23687,2.01933,0.32398,1.92592
0.32198,0.00767,0.00121,0.00695,0.07511,0.01188,0.06812,5.33226,2.13564,0.33784,1.93695
0.32774,0.0078,0.00112,0.00675,0.07639,0.011,0.06612,5.42765,2.25052,0.32391,1.94794
0.3335,0.00798,0.00126,0.00656,0.0782,0.01233,0.06422,5.52306,2.38539,0.3762,1.95883
0.33926,0.01023,0.00122,0.00637,0.10018,0.01195,0.06239,5.61845,3.16223,0.37729,1.96959
0.34502,0.00777,0.00123,0.00619,0.07614,0.01207,0.06065,5.71384,2.48589,0.39418,1.98022
0.35078,0.00723,0.00123,0.00602,0.07079,0.01201,0.05899,5.80925,2.38905,0.40536,1.99071
0.35654,0.00864,0.00122,0.00586,0.08459,0.01195,0.05739,5.90464,2.94929,0.41667,2.00105
0.3623,0.00663,0.00119,0.0057,0.06491,0.01165,0.05587,6.00004,2.33692,0.41937,2.01119
0.36806,0.00746,0.00119,0.00555,0.07304,0.01165,0.0544,6.09543,2.71379,0.4328,2.02111
0.37382,0.00663,0.00114,0.00541,0.06493,0.01114,0.05299,6.19083,2.48872,0.42698,2.03082
0.37958,0.00472,0.00113,0.00527,0.04629,0.01107,0.05163,6.28623,1.82906,0.43752,2.04036
0.38534,0.00796,0.0012,0.00514,0.07799,0.01171,0.05033,6.38162,3.17633,0.47678,2.04975
0.3911,0.00553,0.00127,0.00501,0.05422,0.01243,0.04908,6.47701,2.2746,0.52155,2.059
0.39686,0.0071,0.00129,0.00489,0.06959,0.0126,0.04788,6.57242,3.00599,0.54425,2.06814
0.40262,0.00534,0.00119,0.00477,0.05229,0.01165,0.04672,6.66781,2.3247,0.51802,2.07719
0.40838,0.00559,0.00116,0.00466,0.05474,0.01139,0.04561,6.7632,2.50367,0.52087,2.08614
0.41414,0.00507,0.00117,0.00455,0.04969,0.01143,0.04454,6.85861,2.33748,0.53779,2.09502
0.4199,0.0048,0.00119,0.00444,0.04705,0.01165,0.04351,6.954,2.27546,0.56319,2.10383
0.42567,0.00645,0.00114,0.00434,0.0632,0.01116,0.04251,7.04939,3.14086,0.55446,2.11255
0.43143,0.00547,0.00111,0.00424,0.05357,0.01086,0.04155,7.1448,2.73472,0.5545,2.1212
0.43719,0.00496,0.00122,0.00415,0.04858,0.01196,0.04063,7.24019,2.54674,0.62688,2.12978
0.44295,0.00454,0.00123,0.00406,0.04448,0.01201,0.03974,7.33558,2.39334,0.64603,2.1383
0.44871,0.00461,0.00119,0.00397,0.04512,0.01167,0.03888,7.43099,2.49125,0.64451,2.14676
0.45447,0.0016,0.00113,0.00388,0.0157,0.01108,0.03805,7.52638,0.88912,0.62788,2.15516
0.46023,0.0046,0.00126,0.0038,0.04507,0.01237,0.03724,7.62177,2.61843,0.71853,2.16349
0.46599,0.00396,0.00119,0.00372,0.03875,0.01165,0.03647,7.71718,2.3077,0.69389,2.17176
0.47175,0.00419,0.00126,0.00365,0.04108,0.01234,0.03572,7.81257,2.50766,0.75312,2.17997
0.47751,0.00395,0.00122,0.00357,0.03873,0.01198,0.03499,7.90796,2.42208,0.74925,2.18813
0.48327,0.00481,0.00121,0.0035,0.04711,0.01188,0.03429,8.00336,3.01778,0.76111,2.19622
0.48903,0.00181,0.00123,0.00343,0.01773,0.01208,0.03361,8.09876,1.16323,0.79211,2.20425
0.49479,0.00578,0.00119,0.00336,0.05661,0.01165,0.03295,8.19415,3.80083,0.78194,2.2122
0.50055,0.0062,0.0011,0.0033,0.06071,0.01075,0.03231,8.28955,4.1721,0.73903,2.2201
0.50631,0.00366,0.00129,0.00323,0.03587,0.0126,0.03169,8.38494,2.52171,0.88597,2.22793
0.51207,0.00408,0.0012,0.00317,0.03998,0.0118,0.03109,8.48033,2.87551,0.8486,2.23569
0.51783,0.00501,0.00114,0.00311,0.04909,0.0112,0.0305,8.57574,3.60997,0.82364,2.24339
0.52359,0.00211,0.00115,0.00306,0.02063,0.01128,0.02994,8.67113,1.55146,0.84784,2.25101
0.52935,0.00289,0.00132,0.003,0.0283,0.01292,0.02939,8.76654,2.17519,0.99258,2.25855
0.53511,0.00061,0.00121,0.00295,0.00593,0.01187,0.02885,8.86193,0.46561,0.93192,2.26601
0.54087,0.00444,0.00122,0.00289,0.04354,0.01195,0.02833,8.95732,3.49315,0.95872,2.27337
0.54663,0.00214,0.00131,0.00284,0.02096,0.01288,0.02783,9.05273,1.71785,1.05535,2.28062
0.55239,0.00264,0.00119,0.00279,0.02583,0.01161,0.02734,9.14812,2.1619,0.97177,2.28776
0.55815,0.00541,0.00118,0.00274,0.05299,0.01155,0.02686,9.24351,4.52754,0.98651,2.29479
0.56391,0.0014,0.00126,0.00269,0.01369,0.01233,0.02639,9.33892,1.19385,1.07578,2.30173
0.56967,0.0034,0.00122,0.00265,0.03327,0.01194,0.02594,9.43431,2.9616,1.06279,2.30856
0.57543,0.00194,0.00125,0.0026,0.01904,0.01226,0.02549,9.5297,1.72872,1.11321,2.31529
0.5812,0.0023,0.00123,0.00256,0.02257,0.01206,0.02506,9.62511,2.09111,1.11733,2.32193
0.58696,0.00269,0.00108,0.00252,0.02633,0.01056,0.02464,9.7205,2.48822,0.99799,2.32847
0.59271,0.0007,0.00115,0.00247,0.00688,0.01125,0.02423,9.81589,0.66306,1.08377,2.33492
0.59848,0.0027,0.00126,0.00243,0.02644,0.01234,0.02383,9.9113,2.59742,1.2122,2.34127
0.60424,0.00253,0.0012,0.00239,0.02483,0.01177,0.02344,10.00669,2.48621,1.17858,2.34752
0.61,0.00088,0.00122,0.00235,0.00862,0.01198,0.02306,10.10208,0.87956,1.2228,2.35367
0.61576,0.00135,0.00124,0.00232,0.01326,0.01213,0.02269,10.19748,1.37896,1.26154,2.35973
0.62152,0.00359,0.00121,0.00228,0.03519,0.01184,0.02233,10.29287,3.72782,1.25404,2.36571
0.62728,0.00134,0.00115,0.00224,0.01315,0.01122,0.02198,10.38827,1.41951,1.21056,2.37163
0.63304,0.00167,0.00121,0.00221,0.01633,0.01182,0.02163,10.48367,1.79463,1.29963,2.3775
0.6388,0.00116,0.00115,0.00217,0.01133,0.01128,0.0213,10.57906,1.26783,1.26232,2.38331
0.64456,-0.00019,0.00125,0.00214,-0.0019,0.01223,0.02097,10.67445,-0.21606,1.39326,2.38909
0.65032,0.00123,0.00117,0.00211,0.01201,0.01145,0.02065,10.76986,1.39297,1.32819,2.39482