Folder: supportingdata/2025/starling_2025/figures/experimental_comparison/saxs_scattering/experiment/ul11

Note: 2025/starling_2025/figures/experimental_comparison/saxs_scattering/experiment/readme.md
# About

This directory contains scattering data and their reanalysis using the (wonderful) MFF of [Riback et al.](https://sosnick.uchicago.edu/SAXSonIDPs/).

This means for every SAXS piece of SAXS data here, we:

1. Verified it was of high quality
2. Re-evaluated it in a CONSISTENT (and in our experience, very robust) way


We feel this sets the highest bar for consistent, high-quality experimental data to compare against. We also hope this is generally useful for the community in the future.

### Files

* `sequences.fasta` - the sequences for all the proteins in this directory (53 proteins)
* `mff_analysis_all.csv` - a CSV file we 53 entries with three columns (name, $R_g$ value, $R_g$ error), as calculated for each scattering data directly using the [Molecular Form Factor](https://sosnick.uchicago.edu/SAXSonIDPs/). The Rg/error values here are summaries; for EACH entry, the full MFF output is in the `mff_out.csv` file in each directory.


### Subdirectories
* Each subdirectory (e.g., `alpha_syn`) contains a set of files:
	* `<filename>.dat` (or something like this), which is the original scattering data. If no `_clean.dat` file (described below) is present, this is the file that will be used for the scattering data.
	* `SASD<ID>.dat` - [optional] - some of the files have the original [SASBDB](https://www.sasbdb.org/) scattering data,
	* `<sequence-name>_clean.dat` - the final, cleaned scattering data in a self-consistent format, which, _if available_ will be the scattering data to use. 
	* `mff_out.csv` - full output from the MFF analysis of the cleaned scattering data.

File: mff_out.csv
#File Plotted Below: ul11.dat,,,,,,,,,,
,,,,,,,,,,
    #Fit from 0.01-0.15 with polymer MFF,,,,,,,,,,
#Initial search parameter for I0 = 0.00477929,,,,,,,,,,
#Initial search parameter for Rg = 30,,,,,,,,,,
#Initial search parameter for nu = 0.499881,,,,,,,,,,
#BestFit for I0 = 0.00489 +- 0.00004,,,,,,,,,,
#BestFit for I(0)/I0 = 1.00000 +- 0.00874,,,,,,,,,,
#BestFit for Rg = 25.98628 +- 0.30829,,,,,,,,,,
#BestFit for nu = 0.45784 +- 0.01583,,,,,,,,,,
#BestFit reduced chisquared = 1.01962,,,,,,,,,,
#-------------,,,,,,,,,,
#-------------,,,,,,,,,,
,,,,,,,,,,
    #q,I(q),Error,fit,I(q)/I0,Error/I0,fit/I0,qRg,((qRg)^2)I(q)/I0,((qRg)^2)*Error/I0,((qRg)^2)*fit/I0
0.00741,0.00731,0.0054,0.00483,1.49598,1.10563,0.98811,0.19261,0.0555,0.04102,0.03666
0.01026,0.00444,0.00122,0.00477,0.90914,0.25001,0.9762,0.26669,0.06466,0.01778,0.06943
0.01311,0.00514,0.00053,0.0047,1.05121,0.10771,0.96075,0.34077,0.12207,0.01251,0.11157
0.01596,0.00485,0.00031,0.00461,0.99253,0.06269,0.94211,0.41485,0.17082,0.01079,0.16214
0.01881,0.00456,0.00023,0.0045,0.93217,0.04773,0.92061,0.48893,0.22284,0.01141,0.22008
0.02167,0.00434,0.00021,0.00438,0.88886,0.04255,0.89661,0.56301,0.28175,0.01349,0.28421
0.02452,0.00385,0.00017,0.00425,0.78708,0.0352,0.87046,0.63709,0.31946,0.01429,0.35331
0.02737,0.00389,0.00017,0.00412,0.79528,0.03436,0.8425,0.71117,0.40222,0.01738,0.4261
0.03022,0.00415,0.00015,0.00397,0.84961,0.03159,0.81308,0.78525,0.52388,0.01948,0.50135
0.03307,0.00376,0.00015,0.00383,0.76883,0.02999,0.78254,0.85932,0.56773,0.02215,0.57786
0.03592,0.0036,0.00013,0.00367,0.73557,0.02722,0.75124,0.9334,0.64086,0.02372,0.65451
0.03877,0.00354,0.00013,0.00352,0.72488,0.02667,0.71952,1.00748,0.73577,0.02707,0.73032
0.04162,0.00322,0.00012,0.00336,0.65884,0.02529,0.6877,1.08155,0.77068,0.02958,0.80444
0.04447,0.00318,0.00012,0.00321,0.65043,0.02433,0.65598,1.15563,0.86863,0.03249,0.87604
0.04732,0.00299,0.00012,0.00305,0.61169,0.02366,0.62455,1.2297,0.92498,0.03578,0.94443
0.05017,0.00293,0.00012,0.0029,0.59848,0.02403,0.59361,1.30378,1.01731,0.04085,1.00904
0.05302,0.00295,0.00012,0.00275,0.60347,0.02383,0.56335,1.37785,1.14567,0.04524,1.06949
0.05587,0.0027,0.00011,0.00261,0.55291,0.02329,0.53395,1.45192,1.16557,0.0491,1.12559
0.05872,0.00232,0.00011,0.00247,0.47523,0.02277,0.5056,1.52599,1.10663,0.05303,1.17736
0.06157,0.00255,0.00012,0.00234,0.52147,0.02375,0.47842,1.60006,1.33506,0.06081,1.22484
0.06442,0.00209,0.00012,0.00221,0.42783,0.02469,0.45242,1.67413,1.19908,0.06919,1.26799
0.06727,0.00214,0.00012,0.00209,0.43738,0.02504,0.42759,1.74819,1.33672,0.07654,1.3068
0.07012,0.00171,0.00012,0.00197,0.35026,0.02452,0.40394,1.82226,1.16307,0.08141,1.34132
0.07297,0.0018,0.00012,0.00186,0.36867,0.0246,0.38145,1.89632,1.32576,0.08846,1.37171
0.07582,0.00191,0.00012,0.00176,0.39013,0.0246,0.36013,1.97038,1.51465,0.09551,1.39819
0.07867,0.00167,0.00012,0.00166,0.3419,0.02504,0.33998,2.04445,1.42908,0.10465,1.42103
0.08152,0.00162,0.00012,0.00157,0.33181,0.02492,0.32096,2.11851,1.48918,0.11185,1.44048
0.08437,0.00147,0.00012,0.00148,0.30037,0.02519,0.30302,2.19256,1.44399,0.12108,1.45673
0.08722,0.00139,0.00013,0.0014,0.28515,0.02561,0.28613,2.26662,1.465,0.13155,1.47
0.09007,0.00115,0.00012,0.00132,0.23568,0.02517,0.27022,2.34068,1.29123,0.1379,1.48048
0.09292,0.00131,0.00013,0.00125,0.2671,0.02573,0.25526,2.41473,1.55744,0.15,1.48838
0.09577,0.00123,0.00013,0.00118,0.2514,0.02589,0.24119,2.48878,1.55716,0.16037,1.49391
0.09862,0.00104,0.00013,0.00111,0.21185,0.02625,0.22796,2.56283,1.39144,0.17241,1.49726
0.10147,0.00111,0.00012,0.00105,0.22723,0.02523,0.21553,2.63688,1.57999,0.17545,1.49864
0.10432,0.00105,0.00012,0.001,0.2138,0.02403,0.20387,2.71093,1.57123,0.17662,1.49824
0.10717,0.001,0.00012,0.00094,0.20367,0.02516,0.19291,2.78497,1.57969,0.19511,1.49625
0.11002,0.001,0.00012,0.00089,0.20439,0.02524,0.18263,2.85901,1.67067,0.2063,1.49283
0.11287,0.00069,0.00013,0.00085,0.14164,0.02562,0.17298,2.93305,1.21853,0.22036,1.48812
0.11572,0.00073,0.00013,0.0008,0.1497,0.02566,0.16391,3.00709,1.35364,0.23207,1.48221
0.11857,0.00089,0.00013,0.00076,0.18146,0.02566,0.15539,3.08113,1.72265,0.24357,1.4752
0.12142,0.00101,0.00013,0.00072,0.20628,0.0258,0.14739,3.15516,2.05355,0.25687,1.46724
0.12427,0.00075,0.00012,0.00068,0.15399,0.02539,0.13987,3.22919,1.6058,0.26478,1.45848
0.12711,0.00049,0.00013,0.00065,0.10096,0.02588,0.1328,3.30322,1.10165,0.28242,1.44904
0.12996,0.00059,0.00012,0.00062,0.12051,0.02544,0.12617,3.37725,1.37455,0.29019,1.43904
0.13281,0.00041,0.00013,0.00059,0.08384,0.02558,0.11993,3.45127,0.99859,0.3047,1.42853
0.13566,0.00057,0.00012,0.00056,0.11664,0.02542,0.11406,3.52529,1.4496,0.31595,1.41755
0.13851,0.00041,0.00012,0.00053,0.0838,0.02402,0.10854,3.59931,1.08568,0.31119,1.40618
0.14136,0.00067,0.00012,0.00051,0.13694,0.02502,0.10335,3.67333,1.8478,0.33757,1.39451
0.1442,0.00041,0.00012,0.00048,0.08363,0.02533,0.09846,3.74734,1.17432,0.35569,1.38264
0.14705,0.00053,0.00012,0.00046,0.10783,0.02485,0.09386,3.82135,1.57454,0.36295,1.37064
0.1499,0.00049,0.00012,0.00044,0.10031,0.02549,0.08953,3.89536,1.52214,0.38674,1.35858
0.15275,0.00046,0.00012,0.00042,0.09399,0.02529,0.08546,3.96937,1.48094,0.3984,1.34648
0.1556,0.00045,0.00012,0.0004,0.09122,0.02545,0.08162,4.04337,1.49132,0.41616,1.33435
0.15844,0.0004,0.00013,0.00038,0.08208,0.02567,0.07799,4.11737,1.39154,0.43514,1.32222
0.16129,0.00036,0.00013,0.00036,0.07331,0.02557,0.07458,4.19137,1.28783,0.44927,1.31017
0.16414,0.00038,0.00012,0.00035,0.07798,0.02514,0.07136,4.26536,1.41869,0.45734,1.29825
0.16699,0.00041,0.00013,0.00033,0.08313,0.02577,0.06832,4.33935,1.56537,0.48521,1.28649
0.16983,0.00037,0.00013,0.00032,0.07491,0.02602,0.06546,4.41334,1.45915,0.50678,1.27492
0.17268,0.00002,0.00012,0.00031,0.00498,0.02487,0.06275,4.48733,0.10032,0.50082,1.26354
0.17553,0.00037,0.00012,0.00029,0.07472,0.02451,0.06019,4.56131,1.55452,0.50999,1.25232
0.17837,0.0004,0.00012,0.00028,0.08094,0.02454,0.05777,4.63529,1.73897,0.52736,1.2413
0.18122,0.00039,0.00012,0.00027,0.0804,0.02538,0.05549,4.70926,1.78298,0.56294,1.23052
0.18407,0.00059,0.00012,0.00026,0.12151,0.02513,0.05332,4.78323,2.77998,0.57493,1.21999
0.18691,0.00027,0.00013,0.00025,0.0551,0.02609,0.05128,4.8572,1.29992,0.61542,1.20972
0.18976,0.00014,0.00012,0.00024,0.02846,0.0252,0.04934,4.93117,0.69205,0.61278,1.19971
0.19261,0.0004,0.00012,0.00023,0.08218,0.02516,0.0475,5.00513,2.05871,0.63029,1.18995
0.19545,0.00014,0.00012,0.00022,0.02894,0.02486,0.04576,5.07909,0.74646,0.64139,1.18041
0.1983,0.0002,0.00013,0.00022,0.04138,0.02583,0.0441,5.15304,1.09877,0.6858,1.17111
0.20114,0.00036,0.00013,0.00021,0.07316,0.02557,0.04253,5.22699,1.9987,0.69867,1.16206
0.20399,0.00051,0.00012,0.0002,0.10357,0.02547,0.04104,5.30094,2.91043,0.71574,1.15326
0.20684,0.00002,0.00012,0.00019,0.00423,0.02506,0.03962,5.37488,0.12224,0.72385,1.14471
0.20968,0.0002,0.00012,0.00019,0.04178,0.02382,0.03828,5.44882,1.24044,0.70723,1.13639
0.21253,0.00036,0.00012,0.00018,0.07297,0.02451,0.03699,5.52275,2.22562,0.74761,1.12828
0.21537,0.00012,0.00012,0.00017,0.02533,0.02507,0.03577,5.59668,0.7935,0.78526,1.12036
0.21822,0.00053,0.00012,0.00017,0.10861,0.02541,0.0346,5.67061,3.4924,0.81696,1.11263
0.22106,0.00026,0.00012,0.00016,0.05327,0.02526,0.03349,5.74453,1.75795,0.83357,1.1051
0.2239,0.00009,0.00012,0.00016,0.01917,0.02545,0.03243,5.81845,0.64913,0.86162,1.09777
0.22675,0.00024,0.00012,0.00015,0.05003,0.02504,0.03141,5.89237,1.73715,0.86941,1.09064
0.22959,0.00011,0.00012,0.00015,0.02269,0.02505,0.03044,5.96628,0.80754,0.89162,1.08368
0.23244,0.00012,0.00012,0.00014,0.02362,0.02502,0.02952,6.04018,0.86167,0.91298,1.07687
0.23528,0.0001,0.00012,0.00014,0.02035,0.02517,0.02863,6.11408,0.76055,0.94103,1.0702
0.23812,0.00002,0.00012,0.00014,0.00445,0.02497,0.02778,6.18798,0.17033,0.9561,1.06369
0.24097,0.0003,0.00012,0.00013,0.06084,0.0246,0.02697,6.26187,2.38573,0.96474,1.05733
0.24381,0.00007,0.00011,0.00013,0.01519,0.023,0.02619,6.33576,0.60982,0.92327,1.05112
0.24666,0.00016,0.00012,0.00012,0.03253,0.02411,0.02544,6.40965,1.33656,0.9907,1.04506
0.2495,0.00021,0.00012,0.00012,0.04393,0.02497,0.02472,6.48353,1.84667,1.04976,1.03914
0.25234,0.00017,0.00012,0.00012,0.03492,0.02537,0.02403,6.5574,1.50142,1.0908,1.03334
0.25518,0.00014,0.00012,0.00011,0.02799,0.02528,0.02337,6.63127,1.23065,1.11149,1.02766
0.25803,-0.00012,0.00012,0.00011,-0.02505,0.02443,0.02273,6.70514,-1.1264,1.09841,1.02211
0.26087,-0.00001,0.00012,0.00011,-0.00169,0.0249,0.02212,6.779,-0.07754,1.1443,1.01668
0.26371,0.00016,0.00012,0.00011,0.03202,0.02456,0.02154,6.85285,1.50359,1.1533,1.01137
0.26655,0.00027,0.00012,0.0001,0.0559,0.02505,0.02097,6.9267,2.68222,1.20171,1.00618
0.26939,0.0001,0.00012,0.0001,0.01999,0.02496,0.02043,7.00055,0.97972,1.22302,1.0011
0.27224,0.00039,0.00012,0.0001,0.07973,0.02453,0.0199,7.07439,3.99045,1.22775,0.99612
0.27508,0.00004,0.00012,0.00009,0.0091,0.02489,0.0194,7.14822,0.46509,1.27202,0.99124
0.27792,0.00024,0.00017,0.00009,0.04835,0.03461,0.01891,7.22206,2.52174,1.80524,0.98646
0.28076,0.00014,0.00035,0.00009,0.02961,0.07246,0.01844,7.29588,1.57605,3.85711,0.98179