Folder: supportingdata/2025/starling_2025/analysis/experimental_comparison/saxs_scattering/experiment/hev_pnt3_yyy_aaa

Note: 2025/starling_2025/analysis/experimental_comparison/saxs_scattering/experiment/hev_pnt3_yyy_aaa/readme.md
from https://www.sasbdb.org/data/SASDQE7/

File: mff_out.csv
#File Plotted Below: hev_pnt3_yyy_aaa.dat,,,,,,,,,,
,,,,,,,,,,
    #Fit from 0.01-0.15 with polymer MFF,,,,,,,,,,
#Initial search parameter for I0 = 0.0139793,,,,,,,,,,
#Initial search parameter for Rg = 30,,,,,,,,,,
#Initial search parameter for nu = 0.499881,,,,,,,,,,
#BestFit for I0 = 0.01499 +- 0.00004,,,,,,,,,,
#BestFit for I(0)/I0 = 1.00000 +- 0.00238,,,,,,,,,,
#BestFit for Rg = 27.37390 +- 0.06652,,,,,,,,,,
#BestFit for nu = 0.56907 +- 0.00625,,,,,,,,,,
#BestFit reduced chisquared = 1.44637,,,,,,,,,,
#-------------,,,,,,,,,,
#-------------,,,,,,,,,,
,,,,,,,,,,
    #q,I(q),Error,fit,I(q)/I0,Error/I0,fit/I0,qRg,((qRg)^2)I(q)/I0,((qRg)^2)*Error/I0,((qRg)^2)*fit/I0
0.01551,0.0143,0.0002,0.01411,0.95358,0.01358,0.94101,0.42449,0.17183,0.00245,0.16956
0.02007,0.01386,0.00017,0.01355,0.92428,0.01112,0.90343,0.54934,0.27893,0.00335,0.27264
0.02463,0.01313,0.00014,0.01289,0.87563,0.00961,0.85951,0.67419,0.398,0.00437,0.39068
0.02919,0.01249,0.00013,0.01216,0.83316,0.00859,0.81084,0.79904,0.53194,0.00549,0.51769
0.03375,0.01135,0.00012,0.01138,0.75702,0.00782,0.75901,0.92389,0.64616,0.00667,0.64786
0.03831,0.01063,0.00011,0.01058,0.70864,0.00728,0.70559,1.04873,0.77938,0.00801,0.77603
0.04287,0.00992,0.0001,0.00978,0.66146,0.00676,0.65195,1.17357,0.91101,0.00931,0.89792
0.04743,0.00888,0.0001,0.00898,0.59234,0.00637,0.59915,1.29842,0.99862,0.01074,1.0101
0.05199,0.00808,0.00009,0.00822,0.53871,0.00609,0.54823,1.42326,1.09125,0.01234,1.11053
0.05655,0.00771,0.00009,0.0075,0.51431,0.00608,0.50022,1.5481,1.23259,0.01456,1.19883
0.06111,0.00684,0.00009,0.00683,0.45636,0.00601,0.45574,1.67294,1.27723,0.01683,1.27549
0.06567,0.006,0.00009,0.00622,0.40047,0.00588,0.41485,1.79777,1.29432,0.019,1.34077
0.07023,0.0058,0.00009,0.00566,0.38678,0.00583,0.37755,1.9226,1.42968,0.02153,1.39559
0.0748,0.00526,0.00009,0.00516,0.35097,0.00571,0.34388,2.04744,1.47128,0.02392,1.44154
0.07936,0.00479,0.00008,0.0047,0.31947,0.00555,0.3137,2.17226,1.5075,0.02619,1.48029
0.08392,0.0044,0.00008,0.0043,0.29355,0.00542,0.28674,2.29709,1.54897,0.02862,1.51303
0.08848,0.00402,0.00008,0.00394,0.26787,0.00532,0.26269,2.42191,1.57126,0.03119,1.54086
0.09304,0.00357,0.00008,0.00362,0.23831,0.00522,0.24125,2.54673,1.54563,0.03385,1.5647
0.09759,0.00348,0.00008,0.00333,0.23188,0.00512,0.22213,2.67155,1.65493,0.03654,1.5854
0.10215,0.00323,0.00008,0.00308,0.21565,0.00502,0.20509,2.79635,1.68632,0.03923,1.60373
0.10671,0.00289,0.00008,0.00285,0.19267,0.00512,0.18987,2.92118,1.64413,0.04365,1.62024
0.11127,0.00258,0.00007,0.00264,0.17216,0.00494,0.17623,3.04598,1.59727,0.04581,1.63508
0.11583,0.0026,0.00007,0.00246,0.1732,0.0049,0.16396,3.17077,1.7413,0.04927,1.64843
0.12039,0.00243,0.00007,0.00229,0.16209,0.00478,0.15291,3.29557,1.76038,0.05188,1.66072
0.12495,0.00225,0.00007,0.00214,0.15028,0.0047,0.14294,3.42037,1.75814,0.05496,1.6722
0.12951,0.00207,0.00007,0.00201,0.13775,0.0047,0.1339,3.54517,1.7313,0.05912,1.68287
0.13407,0.00184,0.00007,0.00188,0.12293,0.00487,0.12568,3.66994,1.65573,0.06557,1.69273
0.13863,0.00169,0.00007,0.00177,0.11256,0.00492,0.1182,3.79473,1.6208,0.07085,1.70203
0.14318,0.00168,0.00007,0.00167,0.11177,0.00491,0.11137,3.9195,1.71713,0.07539,1.7109
0.14774,0.00159,0.00007,0.00158,0.10597,0.00491,0.10511,4.04427,1.73328,0.08027,1.71927
0.1523,0.00138,0.00007,0.00149,0.09187,0.00487,0.09937,4.16904,1.59687,0.08472,1.72713
0.15686,0.00121,0.00007,0.00141,0.08073,0.00484,0.09409,4.29379,1.48848,0.08915,1.73461
0.16142,0.00128,0.00007,0.00134,0.08519,0.00479,0.08922,4.41856,1.66323,0.09351,1.74181
0.16597,0.00106,0.00007,0.00127,0.07071,0.00474,0.08472,4.5433,1.45964,0.09786,1.74868
0.17053,0.00103,0.00007,0.00121,0.06877,0.00474,0.08055,4.66804,1.49862,0.10326,1.75519
0.17509,0.00113,0.00007,0.00115,0.07542,0.0047,0.07668,4.79279,1.73252,0.1079,1.76143
0.17964,0.00095,0.00007,0.0011,0.0631,0.00469,0.07309,4.9175,1.52595,0.11339,1.76743
0.1842,0.00093,0.00008,0.00105,0.06192,0.00511,0.06974,5.04222,1.57435,0.12984,1.77316
0.18876,0.00091,0.00008,0.001,0.06044,0.00518,0.06662,5.16696,1.61368,0.13842,1.77858
0.19331,0.00081,0.00007,0.00096,0.05423,0.00491,0.0637,5.29165,1.51851,0.13746,1.78376
0.19787,0.00079,0.00007,0.00091,0.05259,0.00476,0.06097,5.41636,1.5429,0.13951,1.7887
0.20242,0.00081,0.00007,0.00088,0.05391,0.00471,0.05841,5.54108,1.65534,0.14448,1.79338
0.20698,0.00083,0.00007,0.00084,0.0553,0.00465,0.056,5.66577,1.77506,0.14918,1.79776
0.21153,0.00075,0.00007,0.00081,0.04988,0.00459,0.05374,5.79046,1.67244,0.15388,1.8019
0.21609,0.00068,0.00007,0.00077,0.04555,0.00457,0.05161,5.91512,1.59374,0.15997,1.80581
0.22064,0.00062,0.00007,0.00074,0.0416,0.00454,0.0496,6.03978,1.51737,0.1655,1.80948
0.22519,0.00068,0.00007,0.00072,0.04541,0.00444,0.04771,6.16444,1.72545,0.16861,1.81289
0.22975,0.00044,0.00007,0.00069,0.02951,0.00436,0.04592,6.2891,1.16731,0.17262,1.81611
0.2343,0.00057,0.00006,0.00066,0.03781,0.00433,0.04422,6.41376,1.5553,0.17819,1.81915
0.23886,0.00049,0.00006,0.00064,0.03298,0.00429,0.04262,6.53839,1.40978,0.18335,1.82203
0.24341,0.00039,0.00006,0.00062,0.02626,0.00429,0.0411,6.66303,1.1658,0.19057,1.82475
0.24796,0.00047,0.00006,0.00059,0.03158,0.00424,0.03966,6.78763,1.45495,0.19556,1.82735
0.25251,0.00039,0.00006,0.00057,0.02621,0.00424,0.0383,6.91227,1.25225,0.20264,1.82987
0.25706,0.0004,0.00006,0.00055,0.02636,0.00417,0.037,7.03684,1.30523,0.20664,1.8323
0.26162,0.00045,0.00006,0.00054,0.0299,0.00415,0.03577,7.16145,1.53344,0.21289,1.83467
0.26617,0.00048,0.00006,0.00052,0.03194,0.00413,0.0346,7.28603,1.69552,0.21935,1.83697
0.27072,0.0005,0.00006,0.0005,0.03314,0.0041,0.03349,7.41061,1.82011,0.2252,1.83924
0.27527,0.00038,0.00006,0.00049,0.02558,0.00407,0.03243,7.53519,1.45223,0.23107,1.84144
0.27982,0.00043,0.00006,0.00047,0.02859,0.00406,0.03142,7.65974,1.6774,0.23832,1.84359
0.28437,0.00041,0.00006,0.00046,0.02742,0.00404,0.03046,7.78429,1.66149,0.24506,1.84569
0.28892,0.00041,0.00006,0.00044,0.02766,0.00401,0.02954,7.90884,1.73025,0.2507,1.84773
0.29347,0.00033,0.00006,0.00043,0.02183,0.00398,0.02866,8.03336,1.40872,0.25711,1.84973
0.29802,0.00037,0.00006,0.00042,0.0245,0.00395,0.02782,8.15789,1.63024,0.26305,1.85165
0.30256,0.00034,0.00006,0.00041,0.02293,0.00391,0.02702,8.28238,1.57283,0.26844,1.85353
0.30711,0.00033,0.00006,0.00039,0.02175,0.00413,0.02625,8.40688,1.53725,0.29208,1.85536
0.31166,0.00038,0.00006,0.00038,0.02507,0.00433,0.02552,8.53138,1.8249,0.31524,1.85714
0.31621,0.00036,0.00006,0.00037,0.02399,0.00417,0.02481,8.65585,1.79717,0.31273,1.85887
0.32076,0.00037,0.00006,0.00036,0.02473,0.00406,0.02413,8.78032,1.90623,0.31323,1.86055
0.3253,0.00038,0.00006,0.00035,0.02566,0.00397,0.02348,8.90478,2.03467,0.31446,1.86219
0.32985,0.00037,0.00006,0.00034,0.02491,0.00395,0.02286,9.02923,2.03058,0.32167,1.86379
0.33439,0.00034,0.00006,0.00033,0.02283,0.00388,0.02226,9.15364,1.91264,0.32541,1.86533
0.33894,0.00032,0.00006,0.00033,0.02105,0.00382,0.02169,9.27805,1.81164,0.3285,1.86682
0.34348,0.00038,0.00006,0.00032,0.02521,0.00397,0.02113,9.40247,2.22908,0.35128,1.86827
0.34803,0.00037,0.00006,0.00031,0.02473,0.00417,0.0206,9.52688,2.24415,0.37807,1.86965
0.35257,0.00033,0.00006,0.0003,0.02206,0.00422,0.02009,9.65124,2.05525,0.39288,1.87098
0.35712,0.00035,0.00006,0.00029,0.02349,0.00424,0.01959,9.77563,2.24514,0.4056,1.87225
0.36166,0.00018,0.00006,0.00029,0.01199,0.00423,0.01912,9.89999,1.17551,0.41494,1.87348
0.3662,0.00019,0.00006,0.00028,0.01239,0.00428,0.01866,10.02435,1.24499,0.43,1.87466
0.37074,0.0003,0.00006,0.00027,0.01991,0.00433,0.01821,10.14868,2.0503,0.44636,1.8758
0.37528,0.00044,0.00007,0.00027,0.02962,0.00435,0.01778,10.27299,3.12639,0.45889,1.87691
0.37983,0.00018,0.00007,0.00026,0.01223,0.00438,0.01737,10.39732,1.32258,0.47381,1.87798
0.38437,0.00027,0.00007,0.00025,0.01772,0.0044,0.01697,10.5216,1.9615,0.48715,1.87903
0.38891,0.00028,0.00007,0.00025,0.01848,0.00437,0.01659,10.64587,2.09456,0.49477,1.88004
0.39345,0.00039,0.00006,0.00024,0.0259,0.00433,0.01622,10.77015,3.00479,0.50276,1.88103
0.39798,0.00026,0.00007,0.00024,0.01749,0.00435,0.01586,10.8944,2.07553,0.51622,1.88201
0.40252,0.00021,0.00007,0.00023,0.01429,0.00437,0.01551,11.01865,1.73445,0.53067,1.88298
0.40706,0.0003,0.00007,0.00023,0.02,0.00441,0.01517,11.14287,2.48272,0.54712,1.88393
0.4116,0.00018,0.00007,0.00022,0.01196,0.00443,0.01485,11.2671,1.51782,0.56208,1.88489
0.41614,0.00025,0.00007,0.00022,0.0165,0.00443,0.01453,11.39129,2.14055,0.57433,1.88585
0.42067,0.00021,0.00007,0.00021,0.01396,0.00444,0.01423,11.51549,1.85093,0.58859,1.88681
0.42521,0.00022,0.00007,0.00021,0.01482,0.0044,0.01393,11.63966,2.00815,0.5956,1.88778
0.42975,0.00028,0.00007,0.0002,0.01858,0.00444,0.01365,11.76382,2.57099,0.61418,1.88874
0.43428,0.00032,0.00008,0.0002,0.02111,0.00508,0.01337,11.88796,2.98293,0.71736,1.88968
0.43882,0.00028,0.00008,0.0002,0.01858,0.00545,0.0131,12.01211,2.68062,0.78678,1.89058
0.44335,0.00021,0.00009,0.00019,0.01381,0.00593,0.01284,12.13622,2.03411,0.87355,1.89145
0.44788,0.00018,0.0001,0.00019,0.01188,0.00639,0.01259,12.2603,1.78524,0.9612,1.89227
0.45242,0.00015,0.0001,0.00019,0.01021,0.0065,0.01234,12.38439,1.56551,0.99761,1.89309
0.45695,0.00028,0.0001,0.00018,0.01844,0.00679,0.0121,12.50845,2.88505,1.06198,1.89391
0.46148,0.00009,0.0001,0.00018,0.00627,0.00689,0.01187,12.63251,0.9999,1.10029,1.89475
0.46601,0.00017,0.00011,0.00017,0.01104,0.00715,0.01165,12.75654,1.79599,1.16278,1.89556
0.47054,0.00023,0.00011,0.00017,0.01502,0.00745,0.01143,12.88057,2.49137,1.23568,1.89629
0.47507,0.00027,0.00012,0.00017,0.01785,0.00776,0.01122,13.00457,3.01821,1.31204,1.8969
0.4796,0.00018,0.00012,0.00017,0.01173,0.00807,0.01101,13.12855,2.02166,1.39089,1.89732
0.48413,-0.00013,0.00012,0.00016,-0.0087,0.00823,0.0108,13.25253,-1.52858,1.44568,1.89753
0.48866,0.00013,0.00013,0.00016,0.0089,0.00855,0.0106,13.37648,1.59243,1.52954,1.89752
0.49318,0.0004,0.00014,0.00016,0.02682,0.00904,0.01041,13.5004,4.88763,1.64821,1.89725
0.49771,-0.00011,0.00014,0.00015,-0.00746,0.00938,0.01022,13.62435,-1.38426,1.74022,1.89669
0.50224,0.00006,0.00015,0.00015,0.00417,0.00985,0.01003,13.74824,0.78809,1.86128,1.89582
0.50676,0.00015,0.00016,0.00015,0.01031,0.01044,0.00985,13.87211,1.98435,2.00853,1.89459
0.51129,0.00007,0.00017,0.00014,0.00434,0.01103,0.00966,13.996,0.84981,2.16044,1.89297
0.51581,0.00008,0.00018,0.00014,0.00525,0.01196,0.00948,14.11984,1.04717,2.38404,1.8909
0.52034,0.00042,0.00019,0.00014,0.02802,0.01295,0.00931,14.24368,5.68481,2.62645,1.88837
0.52396,0.00055,0.00021,0.00014,0.03645,0.01387,0.00917,14.34272,7.49766,2.85422,1.88599