Folder: supportingdata/2025/starling_2025/analysis/experimental_comparison/saxs_scattering/experiment/nurs_red1

Note: 2025/starling_2025/analysis/experimental_comparison/saxs_scattering/experiment/nurs_red1/readme.md
from https://www.sasbdb.org/data/SASDKD6/

File: mff_out.csv
#File Plotted Below: nurs_red1_clean.dat,,,,,,,,,,
,,,,,,,,,,
    #Fit from 0.01-0.15 with polymer MFF,,,,,,,,,,
#Initial search parameter for I0 = 24276.396,,,,,,,,,,
#Initial search parameter for Rg = 30,,,,,,,,,,
#Initial search parameter for nu = 0.499881,,,,,,,,,,
#BestFit for I0 = 24679.3 +- 35.08708,,,,,,,,,,
#BestFit for I(0)/I0 = 1.00000 +- 0.00142,,,,,,,,,,
#BestFit for Rg = 25.14035 +- 0.03407,,,,,,,,,,
#BestFit for nu = 0.60280 +- 0.00093,,,,,,,,,,
#BestFit reduced chisquared = 1.14220,,,,,,,,,,
#-------------,,,,,,,,,,
#-------------,,,,,,,,,,
,,,,,,,,,,
    #q,I(q),Error,fit,I(q)/I0,Error/I0,fit/I0,qRg,((qRg)^2)I(q)/I0,((qRg)^2)*Error/I0,((qRg)^2)*fit/I0
0.00226,7688,16518.95,24669.9,0.31152,0.66934,0.99962,0.05682,0.00101,0.00216,0.00323
0.00901,24201.96,563.5061,24276.7,0.98066,0.02283,0.98369,0.22658,0.05035,0.00117,0.0505
0.01577,23671.7,311.5704,23411.2,0.95917,0.01262,0.94862,0.39634,0.15068,0.00198,0.14902
0.02252,22843.23,269.5836,22170,0.9256,0.01092,0.89832,0.56611,0.29663,0.0035,0.28789
0.02927,20428.95,217.2628,20649.6,0.82778,0.0088,0.83672,0.73587,0.44824,0.00477,0.45308
0.03602,19264.13,202.9761,18946.7,0.78058,0.00822,0.76772,0.90563,0.6402,0.00675,0.62965
0.04278,17036.2,188.3929,17157.5,0.6903,0.00763,0.69522,1.07539,0.79831,0.00883,0.80399
0.04953,15351.71,181.6197,15364.7,0.62205,0.00736,0.62257,1.24515,0.96443,0.01141,0.96524
0.05628,13735.99,166.9384,13635.4,0.55658,0.00676,0.5525,1.41491,1.11426,0.01354,1.1061
0.06303,12101.82,155.7917,12034.5,0.49036,0.00631,0.48763,1.58467,1.23139,0.01585,1.22454
0.06979,10518.86,146.0399,10596.4,0.42622,0.00592,0.42936,1.75444,1.31193,0.01821,1.3216
0.07654,9381.17,139.6366,9324.39,0.38012,0.00566,0.37782,1.9242,1.40742,0.02095,1.3989
0.08329,8347.51,147.133,8219.96,0.33824,0.00596,0.33307,2.09396,1.48306,0.02614,1.4604
0.09004,7322.84,132.5066,7273.48,0.29672,0.00537,0.29472,2.26372,1.52052,0.02751,1.51027
0.0968,6612.62,135.4758,6465.68,0.26794,0.00549,0.26199,2.43348,1.58671,0.03251,1.55145
0.10355,5956.58,122.0063,5777.1,0.24136,0.00494,0.23409,2.60324,1.63565,0.0335,1.58637
0.1103,5047.78,116.2141,5190.02,0.20453,0.00471,0.2103,2.77301,1.57279,0.03621,1.6171
0.11705,4826.95,112.9947,4688.22,0.19559,0.00458,0.18997,2.94278,1.69377,0.03965,1.64509
0.12381,4369.65,107.9021,4255.89,0.17706,0.00437,0.17245,3.11252,1.71529,0.04236,1.67064
0.13056,3736.75,103.9899,3881.27,0.15141,0.00421,0.15727,3.28229,1.63123,0.0454,1.69432
0.13731,3457.09,101.7245,3555.59,0.14008,0.00412,0.14407,3.45206,1.6693,0.04912,1.71686
0.14406,3038.55,109.0623,3270.34,0.12312,0.00442,0.13251,3.6218,1.61504,0.05797,1.73824
0.15082,2993.47,99.4625,3019.28,0.12129,0.00403,0.12234,3.79157,1.74373,0.05794,1.75877
0.15757,2822.97,96.42378,2797.65,0.11439,0.00391,0.11336,3.96134,1.79497,0.06131,1.77887
0.16432,2697.11,93.3892,2600.83,0.10929,0.00378,0.10538,4.13108,1.86506,0.06458,1.79848
0.17107,2441.91,90.2564,2425.4,0.09895,0.00366,0.09828,4.30086,1.83023,0.06765,1.81786
0.17783,2140.57,88.50541,2268.68,0.08674,0.00359,0.09193,4.47063,1.73354,0.07168,1.83728
0.18458,2163.81,87.05753,2128.04,0.08768,0.00353,0.08623,4.64037,1.88795,0.07596,1.85674
0.19133,2135.62,86.74861,2001.38,0.08653,0.00352,0.0811,4.81014,2.00219,0.08133,1.87634
0.19808,1936.7,85.56943,1886.91,0.07847,0.00347,0.07646,4.97991,1.94613,0.08599,1.8961
0.20484,1807.09,90.11637,1782.92,0.07322,0.00365,0.07224,5.14965,1.94179,0.09683,1.91582
0.21159,1703.15,84.59445,1688.07,0.06901,0.00343,0.0684,5.31942,1.95276,0.09699,1.93547
0.21834,1685.28,82.86646,1601.25,0.06829,0.00336,0.06488,5.48919,2.05757,0.10117,1.95498
0.22509,1699.23,81.38003,1521.37,0.06885,0.0033,0.06165,5.65896,2.20492,0.1056,1.97412
0.23185,1552.22,78.99861,1447.64,0.0629,0.0032,0.05866,5.8287,2.1368,0.10875,1.99284
0.2386,1514.13,80.47521,1379.34,0.06135,0.00326,0.05589,5.99847,2.20755,0.11733,2.01103
0.24535,1543.14,78.28289,1315.81,0.06253,0.00317,0.05332,6.16824,2.379,0.12069,2.02854
0.2521,1298.69,76.73886,1256.68,0.05262,0.00311,0.05092,6.33799,2.11385,0.12491,2.04547
0.25886,1270.71,79.04749,1201.58,0.05149,0.0032,0.04869,6.50775,2.1806,0.13565,2.06196
0.26561,1193,79.42632,1150.19,0.04834,0.00322,0.04661,6.67752,2.15545,0.1435,2.0781
0.27236,1152.01,75.6002,1102.22,0.04668,0.00306,0.04466,6.84727,2.18855,0.14362,2.09397
0.27911,1130.46,74.69961,1057.37,0.04581,0.00303,0.04284,7.01704,2.25543,0.14904,2.1096
0.28587,1014.19,73.55539,1015.35,0.04109,0.00298,0.04114,7.18681,2.12255,0.15394,2.12499
0.29262,1132.2,72.7344,975.96,0.04588,0.00295,0.03955,7.35655,2.48278,0.1595,2.14016
0.29937,1048.13,71.88952,938.957,0.04247,0.00291,0.03805,7.52632,2.40573,0.16501,2.15515
0.30612,957.04,70.83047,904.15,0.03878,0.00287,0.03664,7.69609,2.29687,0.16999,2.16994
0.31288,1043.6,70.51668,871.371,0.04229,0.00286,0.03531,7.86583,2.61632,0.17679,2.18454
0.31963,920.9,73.44581,840.447,0.03731,0.00298,0.03405,8.0356,2.40944,0.19216,2.19894
0.32638,791.32,72.51383,811.231,0.03206,0.00294,0.03287,8.20537,2.15881,0.19783,2.21313
0.33314,902.31,70.42065,783.598,0.03656,0.00285,0.03175,8.37514,2.56452,0.20015,2.22712
0.33989,844.45,69.93533,757.434,0.03422,0.00283,0.03069,8.54488,2.49835,0.20691,2.24091
0.34664,710.67,68.54451,732.614,0.0288,0.00278,0.02969,8.71465,2.18693,0.21093,2.25446
0.35339,698.38,67.83171,709.0394,0.0283,0.00275,0.02873,8.88442,2.23366,0.21695,2.26775
0.36014,792.97,67.51384,686.61,0.03213,0.00274,0.02782,9.05417,2.63403,0.22426,2.28073
0.3669,704.39,67.32514,665.232,0.02854,0.00273,0.02696,9.22393,2.42836,0.2321,2.29336
0.37365,851.42,67.61645,644.845,0.0345,0.00274,0.02613,9.3937,3.04428,0.24176,2.30566
0.3804,790.62,72.32344,625.392,0.03204,0.00293,0.02534,9.56345,2.92997,0.26802,2.31765
0.38716,742.79,70.35444,606.81,0.0301,0.00285,0.02459,9.73322,2.85132,0.27007,2.32934
0.39391,625.63,68.64798,589.047,0.02535,0.00278,0.02387,9.90299,2.48609,0.27279,2.34072
0.40066,694.04,68.24434,572.054,0.02812,0.00277,0.02318,10.07273,2.85329,0.28056,2.35179
0.40741,588.8,68.51324,555.782,0.02386,0.00278,0.02252,10.2425,2.50292,0.29124,2.36256
0.41417,755.46,68.36403,540.208,0.03061,0.00277,0.02189,10.41227,3.31871,0.30032,2.37311
0.42092,481.51,67.86194,525.302,0.01951,0.00275,0.02129,10.58204,2.1848,0.30792,2.3835
0.42767,770.7,68.59918,511.033,0.03123,0.00278,0.02071,10.75178,3.61005,0.32133,2.39374
0.43442,680.77,68.41445,497.355,0.02758,0.00277,0.02015,10.92155,3.2903,0.33066,2.40382
0.44118,502.82,75.61392,484.228,0.02037,0.00306,0.01962,11.09132,2.50637,0.37691,2.4137
0.44793,655.16,72.09059,471.617,0.02655,0.00292,0.01911,11.26106,3.36646,0.37043,2.42335
0.45468,584.9,71.15409,459.486,0.0237,0.00288,0.01862,11.43083,3.09674,0.37672,2.43274
0.46143,576.71,70.71234,447.804,0.02337,0.00287,0.01814,11.6006,3.14475,0.38559,2.44184
0.46819,545.46,70.80454,436.548,0.0221,0.00287,0.01769,11.77035,3.06202,0.39747,2.45063
0.47494,587.64,70.48247,425.6936,0.02381,0.00286,0.01725,11.94012,3.39465,0.40716,2.45913
0.48169,511.39,70.70556,415.225,0.02072,0.00286,0.01682,12.10988,3.03878,0.42015,2.46735
0.48844,646.84,70.59681,405.155,0.02621,0.00286,0.01642,12.27963,3.95216,0.43134,2.47547
0.4952,473.57,70.06835,395.513,0.01919,0.00284,0.01603,12.4494,2.97405,0.44003,2.48384
0.50195,296.47,78.01172,386.332,0.01201,0.00316,0.01565,12.61917,1.91297,0.50337,2.49281
0.5087,541.36,73.15297,377.626,0.02194,0.00296,0.0153,12.78891,3.58773,0.4848,2.50262
0.51545,517.04,72.62765,369.394,0.02095,0.00294,0.01497,12.95868,3.51814,0.49419,2.51349
0.52221,462.24,72.46143,361.64,0.01873,0.00294,0.01465,13.12845,3.22821,0.50606,2.52563
0.52896,531.51,72.37089,354.371,0.02154,0.00293,0.01436,13.29822,3.8086,0.51858,2.53929
0.53571,471.8,71.718,347.599,0.01912,0.00291,0.01408,13.46796,3.4676,0.52711,2.55476
0.54246,409.4,71.73625,341.333,0.01659,0.00291,0.01383,13.63773,3.08531,0.54062,2.57235
0.54922,498.88,70.95239,335.598,0.02021,0.00287,0.0136,13.8075,3.85384,0.54811,2.59249
0.55597,423.78,72.774,330.425,0.01717,0.00295,0.01339,13.97724,3.35467,0.57608,2.61567
0.56272,465.62,80.61813,325.843,0.01887,0.00327,0.0132,14.14701,3.77597,0.65378,2.64244
0.56947,426.26,75.43729,321.879,0.01727,0.00306,0.01304,14.31679,3.54024,0.62653,2.67332
0.57623,334.65,74.07974,318.563,0.01356,0.003,0.01291,14.48653,2.84568,0.62993,2.70889
0.58298,276.42,73.38641,315.9195,0.0112,0.00297,0.0128,14.6563,2.40594,0.63875,2.74974
0.58973,319.7,73.28512,313.967,0.01295,0.00297,0.01272,14.82607,2.84748,0.65273,2.79642
0.59648,364.99,73.22262,312.721,0.01479,0.00297,0.01267,14.99581,3.32574,0.66719,2.84947
0.60324,400.88,72.46186,312.198,0.01624,0.00294,0.01265,15.16558,3.73593,0.6753,2.90948
0.60999,364.06,72.73443,312.418,0.01475,0.00295,0.01266,15.33535,3.46918,0.6931,2.97708
0.61674,398.39,77.71428,313.401,0.01614,0.00315,0.0127,15.50509,3.88083,0.75704,3.05292
0.62349,382.88,79.26951,315.169,0.01551,0.00321,0.01277,15.67486,3.81186,0.78919,3.13774
0.63025,506.42,76.97676,317.751,0.02052,0.00312,0.01288,15.84463,5.1516,0.78305,3.23234
0.637,346.9,75.71464,321.177,0.01406,0.00307,0.01301,16.0144,3.60489,0.78681,3.33759
0.64375,359.74,74.93479,325.48,0.01458,0.00304,0.01319,16.18415,3.81799,0.7953,3.45438
0.6505,368.02,74.87368,330.692,0.01491,0.00303,0.0134,16.35391,3.98824,0.81141,3.58372
0.65726,291.7,74.47604,336.848,0.01182,0.00302,0.01365,16.52368,3.22713,0.82394,3.72661
0.66401,270.8,74.08136,343.98,0.01097,0.003,0.01394,16.69343,3.05778,0.8365,3.88411
0.67076,276.64,74.03918,352.1309,0.01121,0.003,0.01427,16.8632,3.18758,0.85312,4.05743
0.67752,266.87,80.84322,361.337,0.01081,0.00328,0.01464,17.03297,3.13724,0.95037,4.24775
0.68427,390.44,90.83512,371.63,0.01582,0.00368,0.01506,17.20271,4.68182,1.08922,4.45627
0.69102,365.86,98.79222,383.042,0.01482,0.004,0.01552,17.37248,4.4741,1.20813,4.68421
0.69777,249.65,109.2572,395.594,0.01012,0.00443,0.01603,17.54225,3.11293,1.36235,4.93272
0.70452,243.28,121.2604,409.3121,0.00986,0.00491,0.01659,17.71199,3.09249,1.54142,5.20303
0.71128,333.63,143.3097,424.233,0.01352,0.00581,0.01719,17.88176,4.32267,1.85679,5.49658
0.71803,411.95,168.301,440.389,0.01669,0.00682,0.01784,18.05153,5.43925,2.22219,5.81475
0.72478,171.68,213.0055,457.808,0.00696,0.00863,0.01855,18.22128,2.30964,2.8656,6.15896
0.73153,86.42,272.1574,476.523,0.0035,0.01103,0.01931,18.39104,1.18439,3.72992,6.53076
0.73829,-114.08,493.7874,496.561,-0.00462,0.02001,0.02012,18.56081,-1.59247,6.89288,6.9316
0.74054,1712.8,1043.328,503.537,0.0694,0.04228,0.0204,18.61739,24.05531,14.65295,7.07189