Folder: supportingdata/2025/starling_2025/analysis/experimental_comparison/saxs_scattering/experiment/serf

Note: 2025/starling_2025/analysis/experimental_comparison/saxs_scattering/experiment/serf/original_filename.txt
SERF_0.56mM.dat

Note: 2025/starling_2025/analysis/experimental_comparison/saxs_scattering/experiment/serf/readme.md
deleted initial datapoints wit no data

File: mff_out.csv
#File Plotted Below: serf_clean.dat,,,,,,,,,,
,,,,,,,,,,
    #Fit from 0.01-0.15 with polymer MFF,,,,,,,,,,
#Initial search parameter for I0 = 4.34906,,,,,,,,,,
#Initial search parameter for Rg = 30,,,,,,,,,,
#Initial search parameter for nu = 0.499881,,,,,,,,,,
#BestFit for I0 = 4.42103 +- 0.02642,,,,,,,,,,
#BestFit for I(0)/I0 = 1.00000 +- 0.00598,,,,,,,,,,
#BestFit for Rg = 23.90001 +- 0.11974,,,,,,,,,,
#BestFit for nu = 0.60280 +- 0.00316,,,,,,,,,,
#BestFit reduced chisquared = 7.65704,,,,,,,,,,
#-------------,,,,,,,,,,
#-------------,,,,,,,,,,
,,,,,,,,,,
    #q,I(q),Error,fit,I(q)/I0,Error/I0,fit/I0,qRg,((qRg)^2)I(q)/I0,((qRg)^2)*Error/I0,((qRg)^2)*fit/I0
0.0099,4.0363,1.30229,4.34197,0.91298,0.29457,0.98212,0.23655,0.05109,0.01648,0.05496
0.01558,4.25683,0.07129,4.2203,0.96286,0.01612,0.9546,0.37231,0.13347,0.00224,0.13232
0.02126,4.12411,0.0515,4.05402,0.93284,0.01165,0.91699,0.50807,0.2408,0.00301,0.23671
0.02694,3.96133,0.04684,3.85197,0.89602,0.01059,0.87128,0.64384,0.37142,0.00439,0.36117
0.03262,3.61459,0.03731,3.623,0.81759,0.00844,0.81949,0.7796,0.49691,0.00513,0.49806
0.0383,3.42272,0.03394,3.37598,0.77419,0.00768,0.76362,0.91536,0.64868,0.00643,0.63982
0.04398,3.09917,0.03021,3.11973,0.70101,0.00683,0.70566,1.05112,0.77451,0.00755,0.77964
0.04966,2.82114,0.02598,2.86197,0.63812,0.00588,0.64735,1.18688,0.89891,0.00828,0.91192
0.05534,2.55061,0.02402,2.60888,0.57693,0.00543,0.59011,1.32264,1.00926,0.00951,1.03232
0.06102,2.23515,0.02381,2.36653,0.50557,0.00539,0.53529,1.4584,1.07532,0.01145,1.13853
0.0667,2.09608,0.02146,2.14067,0.47412,0.00485,0.4842,1.59416,1.2049,0.01234,1.23053
0.07238,1.87828,0.02008,1.93359,0.42485,0.00454,0.43736,1.72992,1.27143,0.01359,1.30886
0.07806,1.70124,0.0189,1.74552,0.38481,0.00427,0.39482,1.86568,1.33943,0.01488,1.37429
0.08374,1.51581,0.01803,1.57663,0.34286,0.00408,0.35662,2.00144,1.37344,0.01634,1.42854
0.08942,1.39184,0.018,1.42677,0.31482,0.00407,0.32272,2.13721,1.438,0.01859,1.47409
0.0951,1.26719,0.01651,1.29447,0.28663,0.00374,0.2928,2.27297,1.48083,0.0193,1.51271
0.10078,1.19271,0.01571,1.17794,0.26978,0.00355,0.26644,2.40874,1.56528,0.02062,1.54589
0.10646,1.08554,0.01554,1.07538,0.24554,0.00351,0.24324,2.54449,1.58973,0.02275,1.57486
0.11214,0.99493,0.01493,0.98512,0.22504,0.00338,0.22283,2.68024,1.61665,0.02427,1.60072
0.11782,0.94504,0.01411,0.90563,0.21376,0.00319,0.20485,2.81602,1.69511,0.0253,1.62442
0.12351,0.8806,0.01401,0.83545,0.19918,0.00317,0.18897,2.95177,1.73548,0.02761,1.64651
0.12918,0.81902,0.01328,0.77311,0.18526,0.003,0.17487,3.08752,1.766,0.02863,1.66702
0.13487,0.76404,0.01308,0.71753,0.17282,0.00296,0.1623,3.2233,1.79554,0.03075,1.68624
0.14055,0.73615,0.01317,0.66792,0.16651,0.00298,0.15108,3.35905,1.87878,0.03362,1.70464
0.14623,0.69936,0.01247,0.62344,0.15819,0.00282,0.14102,3.49483,1.9321,0.03446,1.72236
0.15191,0.65206,0.01201,0.58338,0.14749,0.00272,0.13196,3.63058,1.94408,0.0358,1.73931
0.15759,0.63207,0.01229,0.5472,0.14297,0.00278,0.12377,3.76633,2.02806,0.03944,1.75575
0.16327,0.60157,0.01282,0.51448,0.13607,0.0029,0.11637,3.90211,2.07185,0.04414,1.7719
0.16895,0.57446,0.01293,0.48477,0.12994,0.00293,0.10965,4.03786,2.11857,0.0477,1.78777
0.17463,0.55997,0.01291,0.4577,0.12666,0.00292,0.10353,4.17361,2.2063,0.05085,1.80334
0.18031,0.54768,0.01304,0.433,0.12388,0.00295,0.09794,4.30939,2.30056,0.05476,1.81883
0.18599,0.50149,0.01319,0.41043,0.11343,0.00298,0.09284,4.44514,2.24137,0.05896,1.83436
0.19167,0.48146,0.01341,0.38974,0.1089,0.00303,0.08816,4.58091,2.28529,0.06367,1.84992
0.19735,0.45172,0.01328,0.37073,0.10218,0.003,0.08386,4.71667,2.27309,0.06684,1.86552
0.20303,0.44598,0.01353,0.35323,0.10088,0.00306,0.0799,4.85242,2.37523,0.07208,1.88125
0.20871,0.44512,0.01318,0.33707,0.10068,0.00298,0.07624,4.98819,2.5052,0.07416,1.89707
0.21439,0.42027,0.01373,0.3221,0.09506,0.00311,0.07286,5.12395,2.49584,0.08155,1.91284
0.22007,0.3764,0.01357,0.3082,0.08514,0.00307,0.06971,5.2597,2.35529,0.08489,1.92856
0.22575,0.38592,0.01344,0.29527,0.08729,0.00304,0.06679,5.39547,2.54115,0.08853,1.94424
0.23143,0.37754,0.01361,0.28319,0.0854,0.00308,0.06406,5.53123,2.61264,0.09422,1.95976
0.23711,0.37485,0.01362,0.27189,0.08479,0.00308,0.0615,5.667,2.72294,0.09895,1.97502
0.24279,0.35541,0.01341,0.26128,0.08039,0.00303,0.0591,5.80275,2.70689,0.10214,1.99
0.24847,0.3632,0.01373,0.25131,0.08215,0.00311,0.05684,5.93851,2.89718,0.10955,2.00468
0.25415,0.29993,0.0135,0.24191,0.06784,0.00305,0.05472,6.07428,2.50312,0.11265,2.01893
0.25983,0.32703,0.01333,0.23303,0.07397,0.00301,0.05271,6.21003,2.85263,0.11624,2.03276
0.26551,0.31919,0.01377,0.22465,0.0722,0.00311,0.05081,6.34579,2.90734,0.12544,2.04624
0.2712,0.301,0.01393,0.21673,0.06808,0.00315,0.04902,6.48156,2.86025,0.13234,2.05944
0.27687,0.30324,0.01358,0.20924,0.06859,0.00307,0.04733,6.61731,3.00354,0.13446,2.07241
0.28256,0.27202,0.01399,0.20215,0.06153,0.00317,0.04572,6.75307,2.80593,0.14435,2.08519
0.28824,0.28434,0.01349,0.19543,0.06432,0.00305,0.04421,6.88884,3.05219,0.14477,2.09782
0.29392,0.24612,0.01371,0.18907,0.05567,0.0031,0.04277,7.0246,2.74701,0.153,2.11029
0.2996,0.28425,0.01365,0.18303,0.06429,0.00309,0.0414,7.16037,3.29641,0.15835,2.1226
0.30528,0.26077,0.01374,0.17729,0.05898,0.00311,0.0401,7.29612,3.13996,0.16548,2.13478
0.31096,0.24396,0.01353,0.17184,0.05518,0.00306,0.03887,7.43188,3.04779,0.169,2.14684
0.31664,0.26294,0.0137,0.16665,0.05948,0.0031,0.0377,7.56765,3.40611,0.17747,2.15877
0.32232,0.23463,0.01345,0.16171,0.05307,0.00304,0.03658,7.7034,3.14942,0.18049,2.17057
0.328,0.24047,0.01362,0.157,0.05439,0.00308,0.03551,7.83916,3.34259,0.18939,2.18225
0.33368,0.22612,0.01366,0.1525,0.05115,0.00309,0.03449,7.97493,3.25296,0.19653,2.19382
0.33936,0.23324,0.01372,0.14821,0.05276,0.0031,0.03352,8.11068,3.47054,0.20411,2.20524
0.34504,0.23575,0.0135,0.1441,0.05333,0.00305,0.03259,8.24646,3.62637,0.20759,2.21654
0.35072,0.20839,0.01405,0.14017,0.04714,0.00318,0.03171,8.38221,3.31182,0.22332,2.2277
0.3564,0.21088,0.01397,0.13641,0.0477,0.00316,0.03086,8.51796,3.46086,0.22921,2.23874
0.36208,0.20508,0.01348,0.13281,0.04639,0.00305,0.03004,8.65374,3.47387,0.22829,2.24962
0.36776,0.20764,0.01366,0.12935,0.04697,0.00309,0.02926,8.78949,3.62844,0.23872,2.26035
0.37344,0.20366,0.01334,0.12603,0.04607,0.00302,0.02851,8.92524,3.66961,0.24044,2.2709
0.37912,0.18286,0.0137,0.12284,0.04136,0.0031,0.02779,9.06102,3.39588,0.25438,2.28125
0.3848,0.18858,0.0133,0.11977,0.04266,0.00301,0.02709,9.19677,3.60779,0.25439,2.29136
0.39048,0.1809,0.01346,0.11681,0.04092,0.00304,0.02642,9.33255,3.56372,0.26517,2.30127
0.39616,0.18249,0.01346,0.11397,0.04128,0.00304,0.02578,9.4683,3.70039,0.27296,2.31097
0.40184,0.19354,0.01371,0.11122,0.04378,0.0031,0.02516,9.60405,4.03787,0.28605,2.32047
0.40752,0.19689,0.01358,0.10858,0.04453,0.00307,0.02456,9.73983,4.22475,0.29141,2.32979
0.4132,0.17498,0.01366,0.10603,0.03958,0.00309,0.02398,9.87558,3.86,0.30143,2.3389
0.41888,0.18894,0.01421,0.10356,0.04274,0.00321,0.02343,10.01133,4.28331,0.32221,2.34782
0.42457,0.17385,0.01361,0.10118,0.03932,0.00308,0.02289,10.14711,4.04884,0.3169,2.35654
0.43024,0.14678,0.01352,0.09889,0.0332,0.00306,0.02237,10.28286,3.51062,0.32347,2.36509
0.43593,0.15333,0.01354,0.09667,0.03468,0.00306,0.02187,10.41864,3.76468,0.33252,2.3735
0.44161,0.15939,0.01347,0.09453,0.03605,0.00305,0.02138,10.55439,4.01607,0.33943,2.38181
0.44729,0.17391,0.01353,0.09246,0.03934,0.00306,0.02091,10.69014,4.49547,0.34976,2.39004
0.45297,0.14182,0.01351,0.09046,0.03208,0.00306,0.02046,10.82592,3.75962,0.3581,2.39816
0.45865,0.16496,0.01322,0.08853,0.03731,0.00299,0.02003,10.96167,4.48349,0.35937,2.40617
0.46433,0.15382,0.013,0.08666,0.03479,0.00294,0.0196,11.09742,4.28491,0.36227,2.41405
0.47001,0.17254,0.01359,0.08485,0.03903,0.00307,0.01919,11.2332,4.92451,0.388,2.42178
0.47569,0.14017,0.01353,0.08309,0.03171,0.00306,0.0188,11.36895,4.09812,0.39557,2.42935
0.48137,0.13882,0.01337,0.08139,0.0314,0.00302,0.01841,11.50472,4.15611,0.40021,2.43673
0.48705,0.13031,0.01373,0.07974,0.02948,0.0031,0.01804,11.64048,3.99395,0.42067,2.44393
0.49273,0.12974,0.01355,0.07813,0.02935,0.00307,0.01767,11.77623,4.0698,0.42515,2.45093
0.49841,0.13911,0.01376,0.07658,0.03147,0.00311,0.01732,11.912,4.46499,0.44171,2.45774
0.50409,0.15272,0.01354,0.07506,0.03455,0.00306,0.01698,12.04776,5.01417,0.44454,2.46437
0.50977,0.13662,0.01401,0.07359,0.0309,0.00317,0.01665,12.18351,4.58697,0.47028,2.47086
0.51545,0.11127,0.01376,0.07217,0.02517,0.00311,0.01632,12.31928,3.81981,0.47222,2.47739
0.52113,0.1276,0.0136,0.0708,0.02886,0.00308,0.01601,12.45504,4.47745,0.47737,2.48413
0.52681,0.12698,0.01349,0.06948,0.02872,0.00305,0.01571,12.59081,4.55341,0.48355,2.49126
0.53249,0.14051,0.0142,0.06821,0.03178,0.00321,0.01543,12.72656,5.14769,0.52032,2.49891
0.53817,0.11499,0.01258,0.067,0.02601,0.00285,0.01515,12.86232,4.30311,0.47075,2.50718
0.54385,0.12033,0.01387,0.06584,0.02722,0.00314,0.01489,12.99809,4.59839,0.52992,2.51619
0.54953,0.13489,0.01359,0.06474,0.03051,0.00307,0.01464,13.13384,5.26293,0.53021,2.52604
0.55521,0.13626,0.0137,0.0637,0.03082,0.0031,0.01441,13.2696,5.42685,0.54584,2.53687
0.56089,0.11983,0.01408,0.06271,0.0271,0.00319,0.01418,13.40537,4.87072,0.57236,2.54882
0.56657,0.13335,0.01391,0.06177,0.03016,0.00315,0.01397,13.54112,5.53073,0.57686,2.56206
0.57225,0.11711,0.01407,0.0609,0.02649,0.00318,0.01378,13.6769,4.95524,0.59526,2.57675
0.57793,0.10997,0.01378,0.06009,0.02487,0.00312,0.01359,13.81265,4.74562,0.59465,2.59314
0.58361,0.12279,0.01422,0.05934,0.02777,0.00322,0.01342,13.9484,5.40354,0.6258,2.61149
0.5893,0.11112,0.01447,0.05866,0.02513,0.00327,0.01327,14.08418,4.98559,0.64918,2.63208
0.59498,0.11541,0.01444,0.05805,0.0261,0.00327,0.01313,14.21993,5.27856,0.66033,2.65516
0.60066,0.12676,0.01409,0.05751,0.02867,0.00319,0.01301,14.35568,5.90867,0.65699,2.68104
0.60634,0.11417,0.01426,0.05705,0.02583,0.00323,0.0129,14.49146,5.42341,0.67757,2.71
0.61202,0.13526,0.01453,0.05667,0.0306,0.00329,0.01282,14.62721,6.54609,0.70341,2.74234
0.61445,0.1037,0.01484,0.05652,0.02346,0.00336,0.01279,14.68541,5.05862,0.72414,2.75732